SessionID,SessionDate,SessionDuration,SessionFrequency,RecordID,WatchTimestamp,WatchtImeIntervalSince1970,WatchGyroX,WatchGyroY,WatchGyroZ,WatchAccX,WatchAccY,WatchAccZ
0,2021-06-08 16:02:01.8660,00:37,60,2,2021-06-08 16:02:01.6650,1623160921.6653352,-0.005126092117279768,0.013076335191726685,-0.011451158672571182,0.18049630522727966,-0.18161018192768097,-0.9704741835594177
0,2021-06-08 16:02:01.8660,00:37,60,2,2021-06-08 16:02:01.6820,1623160921.681861,-0.0006639655912294984,0.0197901651263237,-0.015608885325491428,0.18132027983665466,-0.17781075835227966,-0.970428466796875
0,2021-06-08 16:02:01.8660,00:37,60,2,2021-06-08 16:02:01.6860,1623160921.686119,0.006243208888918161,0.017606904730200768,-0.017906926572322845,0.18051156401634216,-0.18035894632339478,-0.9703826308250427
0,2021-06-08 16:02:01.8660,00:37,60,2,2021-06-08 16:02:01.7090,1623160921.709017,-0.006517194211483002,0.013226005248725414,-0.01925848051905632,0.18180856108665466,-0.18013009428977966,-0.9698485732078552
0,2021-06-08 16:02:01.8660,00:37,60,2,2021-06-08 16:02:01.7190,1623160921.718546,-0.005837821401655674,0.01505959127098322,-0.015247494913637638,0.18394480645656586,-0.17665109038352966,-0.9680480360984802
0,2021-06-08 16:02:01.8660,00:37,60,2,2021-06-08 16:02:01.7400,1623160921.740411,-0.002655929885804653,0.013868359848856926,-0.016898121684789658,0.18434152007102966,-0.17434699833393097,-0.971649169921875
0,2021-06-08 16:02:01.8660,00:37,60,2,2021-06-08 16:02:01.8020,1623160921.8019218,-0.011352987959980965,0.015493154525756836,-0.013699932023882866,0.18653880059719086,-0.17510995268821716,-0.9669188857078552
0,2021-06-08 16:02:01.8660,00:37,60,2,2021-06-08 16:02:01.8020,1623160921.8019772,0.004368131514638662,0.008378786034882069,-0.008914231322705746,0.18626412749290466,-0.17686471343040466,-0.966766357421875
0,2021-06-08 16:02:01.8660,00:37,60,2,2021-06-08 16:02:01.8020,1623160921.801993,0.0004753888351842761,0.0043760547414422035,-0.011100154370069504,0.18377692997455597,-0.17350775003433228,-0.9678344130516052
0,2021-06-08 16:02:01.8660,00:37,60,2,2021-06-08 16:02:01.8020,1623160921.802013,0.014509874396026134,0.008944175206124783,-0.00981065072119236,0.18197640776634216,-0.17115792632102966,-0.96826171875
0,2021-06-08 16:02:01.8660,00:37,60,2,2021-06-08 16:02:01.8140,1623160921.813761,-0.0016953537706285715,0.005673280451446772,-0.006131493952125311,0.18667611479759216,-0.17526252567768097,-0.9683226943016052
0,2021-06-08 16:02:01.8660,00:37,60,2,2021-06-08 16:02:01.8270,1623160921.827094,-0.008285853080451488,-0.00044826138764619827,-0.004216947592794895,0.18641673028469086,-0.17659005522727966,-0.9671325087547302
0,2021-06-08 16:02:01.8660,00:37,60,2,2021-06-08 16:02:01.8480,1623160921.847758,-0.005951059516519308,0.0025222282856702805,-0.004089914727956057,0.18254098296165466,-0.18235786259174347,-0.9689177870750427
0,2021-06-08 16:02:01.8660,00:37,60,2,2021-06-08 16:02:01.8510,1623160921.8511539,-0.00837608054280281,0.0026716317515820265,-0.0049165599048137665,0.18254098296165466,-0.17951974272727966,-0.9705809950828552
0,2021-06-08 16:02:01.8660,00:37,60,2,2021-06-08 16:02:01.8660,1623160921.866434,0.0028378248680382967,0.005745718255639076,-0.00038812076672911644,0.18661507964134216,-0.17207345366477966,-0.9701080322265625
0,2021-06-08 16:02:01.8660,00:37,60,2,2021-06-08 16:02:01.8810,1623160921.8811378,-0.002827357267960906,0.004916143603622913,-0.0007684202864766121,0.18817147612571716,-0.17414864897727966,-0.970428466796875
0,2021-06-08 16:02:01.8660,00:37,60,2,2021-06-08 16:02:01.8960,1623160921.896381,0.00023261464957613498,0.0038988161832094193,-0.004820153582841158,0.18452461063861847,-0.18074043095111847,-0.9704589247703552
0,2021-06-08 16:02:01.8660,00:37,60,2,2021-06-08 16:02:01.9110,1623160921.911264,-0.00563683221116662,0.008313005790114403,-0.006664392538368702,0.18251045048236847,-0.18086250126361847,-0.9723815321922302
0,2021-06-08 16:02:01.8660,00:37,60,2,2021-06-08 16:02:01.9260,1623160921.925864,-0.0005394357722252607,0.012019859626889229,-0.006331497337669134,0.18240363895893097,-0.17771919071674347,-0.9694518446922302
0,2021-06-08 16:02:01.8660,00:37,60,2,2021-06-08 16:02:01.9430,1623160921.942513,0.010435664094984531,0.005923351272940636,-0.0073240576311945915,0.18438731133937836,-0.17326363921165466,-0.9721984267234802
0,2021-06-08 16:02:01.8660,00:37,60,2,2021-06-08 16:02:01.9710,1623160921.971095,0.01618303172290325,0.013469950295984745,-0.009956059977412224,0.18420420587062836,-0.17860421538352966,-0.9652251601219177
0,2021-06-08 16:02:01.8660,00:37,60,2,2021-06-08 16:02:01.9800,1623160921.979608,0.0010112428572028875,0.011854210868477821,-0.0097507294267416,0.18423470854759216,-0.17878729104995728,-0.9719085097312927
0,2021-06-08 16:02:01.8660,00:37,60,2,2021-06-08 16:02:01.9870,1623160921.986895,0.013575716875493526,0.01268857903778553,-0.009678558446466923,0.18571481108665466,-0.17597970366477966,-0.9677581787109375
0,2021-06-08 16:02:01.8660,00:37,60,2,2021-06-08 16:02:02.0020,1623160922.0016189,0.007919643074274063,0.008558282628655434,-0.005961318034678698,0.18554697930812836,-0.17765815556049347,-0.9705047607421875
0,2021-06-08 16:02:01.8660,00:37,60,2,2021-06-08 16:02:02.0160,1623160922.015975,-0.013151020742952824,0.010301055386662483,-0.003676858264952898,0.18562325835227966,-0.17669686675071716,-0.9684600234031677
0,2021-06-08 16:02:01.8660,00:37,60,2,2021-06-08 16:02:02.0320,1623160922.032103,-0.006167707033455372,0.011586829088628292,-0.0024115906562656164,0.18643197417259216,-0.17546090483665466,-0.9691161513328552
0,2021-06-08 16:02:01.8660,00:37,60,2,2021-06-08 16:02:02.0460,1623160922.0461512,-0.001220778445713222,0.010874699801206589,-0.0032270506490021944,0.18724068999290466,-0.17576606571674347,-0.970458984375
0,2021-06-08 16:02:01.8660,00:37,60,2,2021-06-08 16:02:02.0620,1623160922.0616012,-0.005523621570318937,0.0057087005116045475,-0.0007337993010878563,0.18881236016750336,-0.17590340971946716,-0.9683532118797302
0,2021-06-08 16:02:01.8660,00:37,60,2,2021-06-08 16:02:02.0780,1623160922.077703,0.007782862056046724,0.004326253663748503,-0.002190282102674246,0.18672189116477966,-0.17483529448509216,-0.9680175185203552
0,2021-06-08 16:02:01.8660,00:37,60,2,2021-06-08 16:02:02.0920,1623160922.0915709,0.008082867600023746,0.006406182423233986,0.0007378635928034782,0.18705756962299347,-0.17628486454486847,-0.9677276015281677
0,2021-06-08 16:02:01.8660,00:37,60,2,2021-06-08 16:02:02.1060,1623160922.106094,0.0032635852694511414,0.009266950190067291,0.0023911534808576107,0.18653877079486847,-0.17652899026870728,-0.9691771864891052
0,2021-06-08 16:02:01.8660,00:37,60,2,2021-06-08 16:02:02.1210,1623160922.121417,0.005293658934533596,0.008402488194406033,0.0003983103670179844,0.18612681329250336,-0.17326363921165466,-0.9686126708984375
0,2021-06-08 16:02:01.8660,00:37,60,2,2021-06-08 16:02:02.1360,1623160922.136135,0.005591666791588068,0.008807288482785225,-0.00019450904801487923,0.18742381036281586,-0.17793281376361847,-0.97216796875
0,2021-06-08 16:02:01.8660,00:37,60,2,2021-06-08 16:02:02.1510,1623160922.151459,0.004015155602246523,0.017785869538784027,-0.004276868421584368,0.18669138848781586,-0.17967233061790466,-0.9712676405906677
0,2021-06-08 16:02:01.8660,00:37,60,2,2021-06-08 16:02:02.1660,1623160922.166436,0.019240979105234146,0.020310547202825546,-0.0033010863699018955,0.18682870268821716,-0.17497260868549347,-0.96795654296875
0,2021-06-08 16:02:01.8660,00:37,60,2,2021-06-08 16:02:02.1830,1623160922.1828,0.011030401103198528,0.018338210880756378,-0.008929677307605743,0.18531809747219086,-0.17890939116477966,-0.9697875380516052
0,2021-06-08 16:02:01.8660,00:37,60,2,2021-06-08 16:02:02.1960,1623160922.196044,-0.0010185383725911379,0.013548247516155243,-0.00909319519996643,0.18583688139915466,-0.18882758915424347,-0.969757080078125
0,2021-06-08 16:02:01.8660,00:37,60,2,2021-06-08 16:02:02.2120,1623160922.211575,0.009828677400946617,0.016013270244002342,-0.012236524373292923,0.18772898614406586,-0.18081673979759216,-0.9662932753562927
0,2021-06-08 16:02:01.8660,00:37,60,2,2021-06-08 16:02:02.2260,1623160922.2260818,0.021793007850646973,0.011791360564529896,-0.017048856243491173,0.18533334136009216,-0.17378243803977966,-0.965576171875
0,2021-06-08 16:02:01.8660,00:37,60,2,2021-06-08 16:02:02.2430,1623160922.242608,0.00518018240109086,0.009308761917054653,-0.012739862315356731,0.18711861968040466,-0.17768868803977966,-0.9698943495750427
0,2021-06-08 16:02:01.8660,00:37,60,2,2021-06-08 16:02:02.2570,1623160922.2567549,-0.024587301537394524,0.007149470970034599,-0.004386591259390116,0.18994149565696716,-0.18171700835227966,-0.965972900390625
0,2021-06-08 16:02:01.8660,00:37,60,2,2021-06-08 16:02:02.2720,1623160922.271594,-0.039159879088401794,0.0019456540467217565,-0.003244894091039896,0.19139108061790466,-0.18128974735736847,-0.963165283203125
0,2021-06-08 16:02:01.8660,00:37,60,2,2021-06-08 16:02:02.2860,1623160922.2862182,-0.0190372746437788,-0.009222311899065971,0.0055014593526721,0.19360360503196716,-0.17718513309955597,-0.9667205810546875
0,2021-06-08 16:02:01.8660,00:37,60,2,2021-06-08 16:02:02.3040,1623160922.303845,-0.00131066027097404,-0.005629708059132099,0.0007109655998647213,0.18823252618312836,-0.17378243803977966,-0.9690245985984802
0,2021-06-08 16:02:01.8660,00:37,60,2,2021-06-08 16:02:02.3170,1623160922.3165169,0.023753946647047997,0.00048384489491581917,-0.0021500680595636368,0.18795786798000336,-0.16787730157375336,-0.9719695448875427
0,2021-06-08 16:02:01.8660,00:37,60,2,2021-06-08 16:02:02.3320,1623160922.331931,0.025709372013807297,0.0025169020518660545,-0.00683163944631815,0.18865974247455597,-0.17384345829486847,-0.9747924208641052
0,2021-06-08 16:02:01.8660,00:37,60,2,2021-06-08 16:02:02.3480,1623160922.3483,0.016870951279997826,0.007988099940121174,-0.00824764184653759,0.18968211114406586,-0.18420419096946716,-0.9687957763671875
0,2021-06-08 16:02:01.8660,00:37,60,2,2021-06-08 16:02:02.3620,1623160922.361867,0.0018562108743935823,0.010654723271727562,-0.0003287326544523239,0.18711861968040466,-0.18499763309955597,-0.9680328369140625
0,2021-06-08 16:02:01.8660,00:37,60,2,2021-06-08 16:02:02.3760,1623160922.376315,-0.014879892580211163,0.013387125916779041,0.001816177275031805,0.18522651493549347,-0.17939764261245728,-0.9693297743797302
0,2021-06-08 16:02:01.8660,00:37,60,2,2021-06-08 16:02:02.3920,1623160922.3917909,-0.012249727733433247,0.0127208037301898,0.004383730702102184,0.18711861968040466,-0.17384345829486847,-0.9687499403953552
0,2021-06-08 16:02:01.8660,00:37,60,2,2021-06-08 16:02:02.4060,1623160922.406275,-0.004552606027573347,0.008546032011508942,0.00877794623374939,0.19061288237571716,-0.17347724735736847,-0.9675444960594177
0,2021-06-08 16:02:01.8660,00:37,60,2,2021-06-08 16:02:02.4220,1623160922.4217482,0.006949054077267647,0.004763810895383358,0.005301455967128277,0.19305430352687836,-0.17747506499290466,-0.9697723388671875
0,2021-06-08 16:02:01.8660,00:37,60,2,2021-06-08 16:02:02.4360,1623160922.436298,0.026958180591464043,0.008861350826919079,0.00037221144884824753,0.19294749200344086,-0.17005927860736847,-0.9696197509765625
0,2021-06-08 16:02:01.8660,00:37,60,2,2021-06-08 16:02:02.4520,1623160922.45204,0.03078005649149418,0.008862149901688099,0.003561080899089575,0.19218453764915466,-0.16973885893821716,-0.967254638671875
0,2021-06-08 16:02:01.8660,00:37,60,2,2021-06-08 16:02:02.4670,1623160922.466572,0.000982960220426321,0.003476172685623169,0.011403823271393776,0.19454964995384216,-0.18064887821674347,-0.963714599609375
0,2021-06-08 16:02:01.8660,00:37,60,2,2021-06-08 16:02:02.4820,1623160922.481999,-0.010610817931592464,-0.00016090646386146545,0.009723102673888206,0.19219979643821716,-0.18624888360500336,-0.9654693007469177
0,2021-06-08 16:02:01.8660,00:37,60,2,2021-06-08 16:02:02.4970,1623160922.4966822,-0.009950087405741215,0.00471880380064249,0.00746926898136735,0.18974311649799347,-0.17965704202651978,-0.9674224257469177
0,2021-06-08 16:02:01.8660,00:37,60,2,2021-06-08 16:02:02.5120,1623160922.5120258,0.015051906928420067,0.00760274101048708,0.004569086711853743,0.18780528008937836,-0.17517098784446716,-0.9763793349266052
0,2021-06-08 16:02:01.8660,00:37,60,2,2021-06-08 16:02:02.5270,1623160922.526628,0.03414224460721016,0.015354669652879238,0.00042334431782364845,0.18396005034446716,-0.17602548003196716,-0.9718169569969177
0,2021-06-08 16:02:01.8660,00:37,60,2,2021-06-08 16:02:02.5420,1623160922.5421848,0.021322479471564293,0.023498350754380226,0.004761100746691227,0.18705758452415466,-0.17570503056049347,-0.9735565185546875
0,2021-06-08 16:02:01.8660,00:37,60,2,2021-06-08 16:02:02.5570,1623160922.556734,0.006091329734772444,0.027697356417775154,0.003172258846461773,0.18978890776634216,-0.18162545561790466,-0.971893310546875
0,2021-06-08 16:02:01.8660,00:37,60,2,2021-06-08 16:02:02.5720,1623160922.5722508,-0.002120021963492036,0.03312620893120766,0.0017756973393261433,0.19094857573509216,-0.19097909331321716,-0.9725341200828552
0,2021-06-08 16:02:01.8660,00:37,60,2,2021-06-08 16:02:02.5870,1623160922.586619,0.018068498000502586,0.04278256744146347,-0.008697183802723885,0.18984995782375336,-0.18627937138080597,-0.973175048828125
0,2021-06-08 16:02:01.8660,00:37,60,2,2021-06-08 16:02:02.6020,1623160922.60218,0.07687375694513321,0.04435756057500839,-0.015252821147441864,0.18977366387844086,-0.18000800907611847,-0.9718016982078552
0,2021-06-08 16:02:01.8660,00:37,60,2,2021-06-08 16:02:02.6170,1623160922.6166759,0.09376485645771027,0.043353281915187836,-0.022232167422771454,0.18779000639915466,-0.17248541116714478,-0.9717864394187927
0,2021-06-08 16:02:01.8660,00:37,60,2,2021-06-08 16:02:02.6320,1623160922.6324039,0.06184607371687889,0.035280175507068634,-0.021528827026486397,0.18888865411281586,-0.17695626616477966,-0.9635009169578552
0,2021-06-08 16:02:01.8660,00:37,60,2,2021-06-08 16:02:02.6470,1623160922.64697,0.01534189935773611,0.025420088320970535,-0.013205915689468384,0.19206246733665466,-0.19680795073509216,-0.9585265517234802
0,2021-06-08 16:02:01.8660,00:37,60,2,2021-06-08 16:02:02.6630,1623160922.663326,-0.013338321819901466,0.01575547643005848,-0.01534336805343628,0.19575509428977966,-0.19857795536518097,-0.956329345703125
0,2021-06-08 16:02:01.8660,00:37,60,2,2021-06-08 16:02:02.6770,1623160922.677034,0.009234631434082985,0.012055546045303345,-0.015939917415380478,0.19923409819602966,-0.18228158354759216,-0.962677001953125
0,2021-06-08 16:02:01.8660,00:37,60,2,2021-06-08 16:02:02.6920,1623160922.692409,0.029704352840781212,0.011333828791975975,-0.008593587204813957,0.19509896636009216,-0.17982491850852966,-0.9657744765281677
0,2021-06-08 16:02:01.8660,00:37,60,2,2021-06-08 16:02:02.7070,1623160922.7069678,0.03352241963148117,0.008543103002011776,-0.006354933138936758,0.19360360503196716,-0.17593392729759216,-0.9658966064453125
0,2021-06-08 16:02:01.8660,00:37,60,2,2021-06-08 16:02:02.7220,1623160922.7224069,0.03168058022856712,-0.00020165275782346725,-0.00022939639165997505,0.19596871733665466,-0.17756661772727966,-0.9653167724609375
0,2021-06-08 16:02:01.8660,00:37,60,2,2021-06-08 16:02:02.7370,1623160922.7368522,0.027965469285845757,0.0002910320181399584,0.009134544059634209,0.20236216485500336,-0.18022164702415466,-0.964996337890625
0,2021-06-08 16:02:01.8660,00:37,60,2,2021-06-08 16:02:02.7520,1623160922.752275,0.025349417701363564,-0.0033798690419644117,0.016407370567321777,0.20304878056049347,-0.18032844364643097,-0.9628600478172302
0,2021-06-08 16:02:01.8660,00:37,60,2,2021-06-08 16:02:02.7670,1623160922.766885,0.019313471391797066,-0.007523215375840664,0.027517812326550484,0.19952403008937836,-0.17941293120384216,-0.9613952040672302
0,2021-06-08 16:02:01.8660,00:37,60,2,2021-06-08 16:02:02.7820,1623160922.78231,0.020933153107762337,-0.009716594591736794,0.0316568948328495,0.19709786772727966,-0.18188484013080597,-0.963134765625
0,2021-06-08 16:02:01.8660,00:37,60,2,2021-06-08 16:02:02.7970,1623160922.7968369,0.0382080152630806,-0.012267903424799442,0.037512652575969696,0.19570931792259216,-0.18054208159446716,-0.9655608534812927
0,2021-06-08 16:02:01.8660,00:37,60,2,2021-06-08 16:02:02.8120,1623160922.8123832,0.043723661452531815,-0.009966133162379265,0.03223586827516556,0.19616708159446716,-0.18084725737571716,-0.9698638916015625
0,2021-06-08 16:02:01.8660,00:37,60,2,2021-06-08 16:02:02.8270,1623160922.826891,0.04643901810050011,-0.006198026239871979,0.03839309886097908,0.19480906426906586,-0.18666085600852966,-0.9675750136375427
0,2021-06-08 16:02:01.8660,00:37,60,2,2021-06-08 16:02:02.8420,1623160922.8422918,0.04205708205699921,0.000316598336212337,0.042521797120571136,0.19375619292259216,-0.19204720854759216,-0.9672393798828125
0,2021-06-08 16:02:01.8660,00:37,60,2,2021-06-08 16:02:02.8570,1623160922.85704,0.044509321451187134,-0.00276947277598083,0.03886234760284424,0.19631965458393097,-0.18505866825580597,-0.9671935439109802
0,2021-06-08 16:02:01.8660,00:37,60,2,2021-06-08 16:02:02.8720,1623160922.872338,0.07550140470266342,0.00628127995878458,0.042393963783979416,0.19442759454250336,-0.18478402495384216,-0.9653014540672302
0,2021-06-08 16:02:01.8660,00:37,60,2,2021-06-08 16:02:02.8870,1623160922.887017,0.0852801576256752,0.010560447350144386,0.034210603684186935,0.19348154962062836,-0.19035348296165466,-0.9728392958641052
0,2021-06-08 16:02:01.8660,00:37,60,2,2021-06-08 16:02:02.9030,1623160922.902622,0.10119212418794632,0.01642313040792942,0.030874192714691162,0.19319163262844086,-0.19013985991477966,-0.9691008925437927
0,2021-06-08 16:02:01.8660,00:37,60,2,2021-06-08 16:02:02.9170,1623160922.917295,0.1093352660536766,0.02383444271981716,0.021939022466540337,0.19049081206321716,-0.19517527520656586,-0.9660186171531677
0,2021-06-08 16:02:01.8660,00:37,60,2,2021-06-08 16:02:02.9330,1623160922.933024,0.10733909159898758,0.031124312430620193,0.01624465174973011,0.19075019657611847,-0.20025643706321716,-0.9665221571922302
0,2021-06-08 16:02:01.8660,00:37,60,2,2021-06-08 16:02:02.9470,1623160922.947287,0.12244286388158798,0.03975827991962433,0.01191302016377449,0.18518076837062836,-0.20137031376361847,-0.9732513427734375
0,2021-06-08 16:02:01.8660,00:37,60,2,2021-06-08 16:02:02.9630,1623160922.962717,0.16842977702617645,0.055563610047101974,0.009012836962938309,0.18397530913352966,-0.20271310210227966,-0.9797667860984802
0,2021-06-08 16:02:01.8660,00:37,60,2,2021-06-08 16:02:02.9770,1623160922.977344,0.2073574662208557,0.0751572772860527,-0.0034451638348400593,0.18466196954250336,-0.19990548491477966,-0.9830932021141052
0,2021-06-08 16:02:01.8660,00:37,60,2,2021-06-08 16:02:02.9930,1623160922.993036,0.24283364415168762,0.08909067511558533,-0.018159661442041397,0.18713387846946716,-0.20663461089134216,-0.985748291015625
0,2021-06-08 16:02:01.8660,00:37,60,2,2021-06-08 16:02:03.0080,1623160923.0076241,0.2682724595069885,0.0954417809844017,-0.03435594215989113,0.19734200835227966,-0.21051034331321716,-0.9692534804344177
0,2021-06-08 16:02:01.8660,00:37,60,2,2021-06-08 16:02:03.0230,1623160923.023003,1.1125212907791138,-10.883237838745117,0.1049465537071228,0.20175179839134216,-0.20883187651634216,-0.9675139784812927
0,2021-06-08 16:02:01.8660,00:37,60,2,2021-06-08 16:02:03.0380,1623160923.037683,1.4362215995788574,1.0223439931869507,-0.5289758443832397,0.11718761920928955,-1.290145993232727,-5.071472108364105
0,2021-06-08 16:02:01.8660,00:37,60,2,2021-06-08 16:02:03.0530,1623160923.0529962,-1.2310545444488525,2.596144199371338,0.16365860402584076,2.1601715683937073,1.172134280204773,-2.051437258720398
0,2021-06-08 16:02:01.8660,00:37,60,2,2021-06-08 16:02:03.1080,1623160923.108057,-0.7596275210380554,4.071617603302002,0.130107581615448,1.0118409097194672,0.17852774262428284,-2.682952880859375
0,2021-06-08 16:02:01.8660,00:37,60,2,2021-06-08 16:02:03.1080,1623160923.108107,-2.0082788467407227,-5.9155964851379395,0.7608921527862549,0.7598267495632172,-0.46093758940696716,0.7864532470703125
0,2021-06-08 16:02:01.8660,00:37,60,2,2021-06-08 16:02:03.1080,1623160923.108279,-2.695781946182251,-2.584735870361328,1.9894803762435913,0.05140694975852966,0.12300099432468414,-1.4905242919921875
0,2021-06-08 16:02:01.8660,00:37,60,2,2021-06-08 16:02:03.1130,1623160923.112679,-0.46308383345603943,0.5038801431655884,-0.4164566993713379,-1.2565306723117828,-0.24882516264915466,-1.1886290907859802
0,2021-06-08 16:02:01.8660,00:37,60,2,2021-06-08 16:02:03.1270,1623160923.127232,1.374840497970581,0.9283933639526367,-1.1247925758361816,-0.36004631221294403,0.44470204412937164,-0.9336242079734802
0,2021-06-08 16:02:01.8660,00:37,60,2,2021-06-08 16:02:03.1430,1623160923.1428308,1.9702589511871338,0.009734068997204304,-0.6475138664245605,0.40837106108665466,0.15594476461410522,-1.0083007216453552
0,2021-06-08 16:02:01.8660,00:37,60,2,2021-06-08 16:02:03.1570,1623160923.1573,1.7511258125305176,-0.09477157145738602,-0.1370125412940979,0.5040436685085297,-0.7989197671413422,-0.8561553955078125
0,2021-06-08 16:02:01.8660,00:37,60,2,2021-06-08 16:02:03.1730,1623160923.1728039,0.09381870180368423,0.05990615859627724,-0.17872856557369232,0.34414683282375336,-0.9589234292507172,-0.7858123779296875
0,2021-06-08 16:02:01.8660,00:37,60,2,2021-06-08 16:02:03.1870,1623160923.187427,-0.720079779624939,-0.021930916234850883,-0.029884228482842445,0.31903086602687836,-0.43740853667259216,-0.8025664687156677
0,2021-06-08 16:02:01.8660,00:37,60,2,2021-06-08 16:02:03.2030,1623160923.203028,-0.6553692817687988,-0.06357370316982269,0.20534053444862366,0.32012948393821716,-0.25180061161518097,-0.8707427382469177
0,2021-06-08 16:02:01.8660,00:37,60,2,2021-06-08 16:02:03.2170,1623160923.217377,-0.5087563991546631,-0.14974907040596008,0.23739248514175415,0.29379281401634216,-0.24888619780540466,-1.0019835829734802
0,2021-06-08 16:02:01.8660,00:37,60,2,2021-06-08 16:02:03.2330,1623160923.233247,-0.5467730164527893,-0.36808404326438904,0.27231478691101074,0.32183846831321716,-0.27139291167259216,-1.04229736328125
0,2021-06-08 16:02:01.8660,00:37,60,2,2021-06-08 16:02:03.2640,1623160923.263989,-0.4775860011577606,-0.5450868010520935,0.2858803868293762,0.34561164677143097,-0.11759956181049347,-1.0413970351219177
0,2021-06-08 16:02:01.8660,00:37,60,2,2021-06-08 16:02:03.2640,1623160923.2642,-0.2775716185569763,-0.5563988089561462,0.09301559627056122,0.34550485014915466,-0.03395089507102966,-1.0269469618797302
0,2021-06-08 16:02:01.8660,00:37,60,2,2021-06-08 16:02:03.2770,1623160923.2774,-0.20486436784267426,-0.7842634320259094,0.14547666907310486,0.45973214507102966,0.007964998483657837,-0.9719542860984802
0,2021-06-08 16:02:01.8660,00:37,60,2,2021-06-08 16:02:03.2930,1623160923.2928262,-0.4681392014026642,-0.9757732152938843,0.31909799575805664,0.49566660821437836,-0.05601508915424347,-0.9385070204734802
0,2021-06-08 16:02:01.8660,00:37,60,2,2021-06-08 16:02:03.3080,1623160923.307857,-0.7263619303703308,-1.1096082925796509,0.47443991899490356,0.5533448159694672,-0.35389716923236847,-1.0033416152000427
0,2021-06-08 16:02:01.8660,00:37,60,2,2021-06-08 16:02:03.3230,1623160923.3230371,-1.6038005352020264,-1.3206504583358765,0.6544725298881531,0.6052094250917435,-0.35839854180812836,-0.8912658095359802
0,2021-06-08 16:02:01.8660,00:37,60,2,2021-06-08 16:02:03.3380,1623160923.337586,-1.745181918144226,-1.364990234375,0.7551141977310181,0.5779572501778603,-0.25299081206321716,-0.89776611328125
0,2021-06-08 16:02:01.8660,00:37,60,2,2021-06-08 16:02:03.3530,1623160923.352984,-1.650688886642456,-1.3568103313446045,0.9334993362426758,0.5703278556466103,-0.19357308745384216,-0.8851470947265625
0,2021-06-08 16:02:01.8660,00:37,60,2,2021-06-08 16:02:03.3670,1623160923.367342,-1.637847661972046,-1.3232076168060303,1.0918368101119995,0.5071106851100922,-0.18975838273763657,-0.8605040907859802
0,2021-06-08 16:02:01.8660,00:37,60,2,2021-06-08 16:02:03.3830,1623160923.3830628,-1.7072696685791016,-1.2321488857269287,1.2709519863128662,0.48260506615042686,-0.17669686675071716,-0.8304443359375
0,2021-06-08 16:02:01.8660,00:37,60,2,2021-06-08 16:02:03.3970,1623160923.3974829,-1.8101332187652588,-1.0971604585647583,1.4178698062896729,0.4371185824275017,-0.15185554325580597,-0.7279967665672302
0,2021-06-08 16:02:01.8660,00:37,60,2,2021-06-08 16:02:03.4130,1623160923.412959,-1.9160549640655518,-0.8921099901199341,1.554670810699463,0.4092102739959955,-0.12937935069203377,-0.6736297607421875
0,2021-06-08 16:02:01.8660,00:37,60,2,2021-06-08 16:02:03.4280,1623160923.427537,-2.0086162090301514,-0.6466373801231384,1.7004517316818237,0.35095220152288675,-0.04069526866078377,-0.61468505859375
0,2021-06-08 16:02:01.8660,00:37,60,2,2021-06-08 16:02:03.4430,1623160923.443293,-2.021291971206665,-0.4200569689273834,1.8716700077056885,0.33610539231449366,-0.01705940067768097,-0.5936889052391052
0,2021-06-08 16:02:01.8660,00:37,60,2,2021-06-08 16:02:03.4580,1623160923.457617,-2.1090505123138428,-0.18404312431812286,2.0562169551849365,0.31234747276175767,0.04426567628979683,-0.57080078125
0,2021-06-08 16:02:01.8660,00:37,60,2,2021-06-08 16:02:03.4730,1623160923.473164,-2.0905613899230957,0.04301399365067482,2.2673187255859375,0.30264286673627794,0.06024162471294403,-0.5414580702781677
0,2021-06-08 16:02:01.8660,00:37,60,2,2021-06-08 16:02:03.4880,1623160923.487897,-2.124734878540039,0.26236259937286377,2.5048935413360596,0.2854462340474129,0.10786431282758713,-0.5268096923828125
0,2021-06-08 16:02:01.8660,00:37,60,2,2021-06-08 16:02:03.5030,1623160923.50333,-2.2304913997650146,0.5022060871124268,2.747065544128418,0.2761536277830601,0.11909478902816772,-0.51800537109375
0,2021-06-08 16:02:01.8660,00:37,60,2,2021-06-08 16:02:03.5180,1623160923.5177941,-2.3632586002349854,0.723353385925293,2.973801374435425,0.2656708247959614,0.13995355367660522,-0.4775543212890625
0,2021-06-08 16:02:01.8660,00:37,60,2,2021-06-08 16:02:03.5330,1623160923.533317,-2.329716920852661,0.9155534505844116,3.2180213928222656,0.2729950472712517,0.16700740158557892,-0.4563140869140625
0,2021-06-08 16:02:01.8660,00:37,60,2,2021-06-08 16:02:03.5480,1623160923.5477529,-2.4582300186157227,1.1022223234176636,3.473029375076294,0.3359833359718323,0.3378600478172302,-0.5136414170265198
0,2021-06-08 16:02:01.8660,00:37,60,2,2021-06-08 16:02:03.5640,1623160923.563596,-2.667562961578369,1.2422891855239868,3.732024908065796,0.3646088093519211,0.4052428901195526,-0.537139892578125
0,2021-06-08 16:02:01.8660,00:37,60,2,2021-06-08 16:02:03.5780,1623160923.577883,-2.9328861236572266,1.3502904176712036,3.9685912132263184,0.3818512409925461,0.4184722304344177,-0.5650177597999573
0,2021-06-08 16:02:01.8660,00:37,60,2,2021-06-08 16:02:03.6000,1623160923.600357,-3.271886110305786,1.4054906368255615,4.16339635848999,0.4009247273206711,0.4585876166820526,-0.558502197265625
0,2021-06-08 16:02:01.8660,00:37,60,2,2021-06-08 16:02:03.6090,1623160923.608601,-3.5932328701019287,1.4383074045181274,4.313747882843018,0.4206848591566086,0.5565490424633026,-0.502105712890625
0,2021-06-08 16:02:01.8660,00:37,60,2,2021-06-08 16:02:03.6240,1623160923.624125,-3.933314561843872,1.4919298887252808,4.4182658195495605,0.4152069389820099,0.5970458388328552,-0.4652404189109802
0,2021-06-08 16:02:01.8660,00:37,60,2,2021-06-08 16:02:03.6380,1623160923.6379561,-4.434959888458252,1.6053930521011353,4.478949069976807,0.3820648789405823,0.6975097060203552,-0.4398651123046875
0,2021-06-08 16:02:01.8660,00:37,60,2,2021-06-08 16:02:03.6540,1623160923.653564,-4.770125865936279,1.7371692657470703,4.5694050788879395,0.3750457763671875,0.7421722114086151,-0.4274139404296875
0,2021-06-08 16:02:01.8660,00:37,60,2,2021-06-08 16:02:03.6680,1623160923.667848,-4.912466526031494,1.8130035400390625,4.691069602966309,0.4219055771827698,0.8026123046875,-0.4427490234375
0,2021-06-08 16:02:01.8660,00:37,60,2,2021-06-08 16:02:03.6830,1623160923.683436,-4.720832347869873,1.8639037609100342,4.826583385467529,0.46760568022727966,0.8387451171875,-0.4485169053077698
0,2021-06-08 16:02:01.8660,00:37,60,2,2021-06-08 16:02:03.6980,1623160923.69817,-4.23068380355835,1.8640680313110352,4.940726280212402,0.5814056992530823,0.9548492431640625,-0.485595703125
0,2021-06-08 16:02:01.8660,00:37,60,2,2021-06-08 16:02:03.7140,1623160923.713791,-3.5732178688049316,1.8159929513931274,4.977313995361328,0.6462249755859375,1.0116730332374573,-0.4851531982421875
0,2021-06-08 16:02:01.8660,00:37,60,2,2021-06-08 16:02:03.7280,1623160923.728122,-2.658695697784424,1.8035048246383667,4.945021629333496,0.7411956787109375,1.0727233290672302,-0.459014892578125
0,2021-06-08 16:02:01.8660,00:37,60,2,2021-06-08 16:02:03.7440,1623160923.7436318,-1.7426354885101318,1.8274751901626587,4.859827995300293,0.7882081270217896,1.124542236328125,-0.486968994140625
0,2021-06-08 16:02:01.8660,00:37,60,2,2021-06-08 16:02:03.7580,1623160923.758157,-0.8561441898345947,1.805633544921875,4.69334077835083,0.885940670967102,1.2217559814453125,-0.5925445556640625
0,2021-06-08 16:02:01.8660,00:37,60,2,2021-06-08 16:02:03.7740,1623160923.773674,-0.24335674941539764,1.7242382764816284,4.500850677490234,0.9250336289405823,1.2280731499195099,-0.6466217041015625
0,2021-06-08 16:02:01.8660,00:37,60,2,2021-06-08 16:02:03.7880,1623160923.7882261,-0.06785514950752258,1.629075527191162,4.243692874908447,0.9440308809280396,1.1724700629711151,-0.71490478515625
0,2021-06-08 16:02:01.8660,00:37,60,2,2021-06-08 16:02:03.8040,1623160923.803699,0.1757238507270813,1.5127190351486206,3.995861530303955,0.9412079453468323,1.09075927734375,-0.70465087890625
0,2021-06-08 16:02:01.8660,00:37,60,2,2021-06-08 16:02:03.8180,1623160923.818227,0.498258501291275,1.4541423320770264,3.6890666484832764,0.8988495469093323,0.8457335829734802,-0.5855865478515625
0,2021-06-08 16:02:01.8660,00:37,60,2,2021-06-08 16:02:03.8340,1623160923.833847,0.9444859027862549,1.4968609809875488,3.453463077545166,0.9008026719093323,0.8022460490465164,-0.52978515625
0,2021-06-08 16:02:01.8660,00:37,60,2,2021-06-08 16:02:03.8480,1623160923.84832,1.649436593055725,1.5286692380905151,3.0807645320892334,0.9581299424171448,0.7352141961455345,-0.4415435194969177
0,2021-06-08 16:02:01.8660,00:37,60,2,2021-06-08 16:02:03.8640,1623160923.863936,2.4225692749023438,1.4966418743133545,2.5865797996520996,1.0240631103515625,0.7205504775047302,-0.424407958984375
0,2021-06-08 16:02:01.8660,00:37,60,2,2021-06-08 16:02:03.8780,1623160923.878319,2.8919999599456787,1.5701650381088257,2.1352250576019287,1.105758786201477,0.743972759693861,-0.4041900336742401
0,2021-06-08 16:02:01.8660,00:37,60,2,2021-06-08 16:02:03.8940,1623160923.8937879,2.9423649311065674,1.594886064529419,1.6622294187545776,1.1226044297218323,0.7080382686108351,-0.4222411811351776
0,2021-06-08 16:02:01.8660,00:37,60,2,2021-06-08 16:02:03.9080,1623160923.908344,2.326228618621826,1.428861141204834,1.2385684251785278,1.1782838106155396,0.4689635671675205,-0.4205016493797302
0,2021-06-08 16:02:01.8660,00:37,60,2,2021-06-08 16:02:03.9240,1623160923.923833,1.2281804084777832,1.178168773651123,0.8385955095291138,1.2000427842140198,0.3306426554918289,-0.4034576416015625
0,2021-06-08 16:02:01.8660,00:37,60,2,2021-06-08 16:02:03.9390,1623160923.938539,0.23378542065620422,0.7075600624084473,0.31942451000213623,1.2268829941749573,0.08934011310338974,-0.4401702582836151
0,2021-06-08 16:02:01.8660,00:37,60,2,2021-06-08 16:02:03.9540,1623160923.9541311,-0.4679696261882782,0.37722793221473694,-0.07251584529876709,1.2433472871780396,0.05178822576999664,-0.4901123046875
0,2021-06-08 16:02:01.8660,00:37,60,2,2021-06-08 16:02:03.9680,1623160923.968463,-0.5705302953720093,0.21216626465320587,-0.38546496629714966,1.1912689805030823,0.09826655685901642,-0.6283874213695526
0,2021-06-08 16:02:01.8660,00:37,60,2,2021-06-08 16:02:03.9840,1623160923.983941,-0.44745397567749023,0.2734813094139099,-0.6619399785995483,1.1515045762062073,0.15019222348928452,-0.6557617038488388
0,2021-06-08 16:02:01.8660,00:37,60,2,2021-06-08 16:02:03.9990,1623160923.998543,-0.3204025328159332,0.21588563919067383,-0.878126859664917,1.0708160400390625,0.24433892220258713,-0.6443023383617401
0,2021-06-08 16:02:01.8660,00:37,60,2,2021-06-08 16:02:04.0140,1623160924.013947,-0.29868072271347046,0.12254902720451355,-0.9803778529167175,1.0388794541358948,0.21099846437573433,-0.6334838569164276
0,2021-06-08 16:02:01.8660,00:37,60,2,2021-06-08 16:02:04.0280,1623160924.028489,-0.4982150197029114,0.015036688186228275,-0.9263090491294861,0.9598695039749146,0.08786006644368172,-0.5675354152917862
0,2021-06-08 16:02:01.8660,00:37,60,2,2021-06-08 16:02:04.0440,1623160924.044038,-0.8249080777168274,-0.06725233048200607,-0.7594111561775208,0.9171906113624573,0.010955730453133583,-0.5364684611558914
0,2021-06-08 16:02:01.8660,00:37,60,2,2021-06-08 16:02:04.0590,1623160924.058537,-1.009460687637329,-0.12811647355556488,-0.589649498462677,0.8196106553077698,-0.08750921161845326,-0.5025482177734375
0,2021-06-08 16:02:01.8660,00:37,60,2,2021-06-08 16:02:04.0740,1623160924.074288,-0.9515097141265869,-0.09316381812095642,-0.41403964161872864,0.7915650606155396,-0.09109505312517285,-0.4793548583984375
0,2021-06-08 16:02:01.8660,00:37,60,2,2021-06-08 16:02:04.0890,1623160924.0885959,-0.7148435115814209,-0.03574766218662262,-0.34074410796165466,0.7860718369483948,0.015624955296516418,-0.5274810343980789
0,2021-06-08 16:02:01.8660,00:37,60,2,2021-06-08 16:02:04.1040,1623160924.104053,-0.4168504476547241,-0.06217793747782707,-0.3483458161354065,0.8215485215187073,0.07751458697021008,-0.5682067722082138
0,2021-06-08 16:02:01.8660,00:37,60,2,2021-06-08 16:02:04.1190,1623160924.1186,-0.0894603356719017,-0.17432817816734314,-0.3597792983055115,0.9354249835014343,0.14247126318514347,-0.6162720024585724
0,2021-06-08 16:02:01.8660,00:37,60,2,2021-06-08 16:02:04.1340,1623160924.13409,0.19065293669700623,-0.2601381540298462,-0.3951311707496643,0.9617767930030823,0.10829158872365952,-0.620819091796875
0,2021-06-08 16:02:01.8660,00:37,60,2,2021-06-08 16:02:04.1490,1623160924.148639,0.38143715262413025,-0.32102546095848083,-0.3935295343399048,0.9772034883499146,0.0029448941349983215,-0.5938262641429901
0,2021-06-08 16:02:01.8660,00:37,60,2,2021-06-08 16:02:04.1640,1623160924.16417,0.5345805287361145,-0.33671921491622925,-0.3928065001964569,0.9984284043312073,-0.03895574063062668,-0.5555877089500427
0,2021-06-08 16:02:01.8660,00:37,60,2,2021-06-08 16:02:04.1790,1623160924.1786761,0.6901514530181885,-0.3349202275276184,-0.31574445962905884,1.0257568955421448,-0.035781919956207275,-0.4345092177391052
0,2021-06-08 16:02:01.8660,00:37,60,2,2021-06-08 16:02:04.1940,1623160924.1943789,0.7327099442481995,-0.36361339688301086,-0.20751947164535522,1.0252074599266052,-0.05482487753033638,-0.3966979384422302
0,2021-06-08 16:02:01.8660,00:37,60,2,2021-06-08 16:02:04.2090,1623160924.2089062,0.6627166271209717,-0.3930240273475647,-0.09830909222364426,0.9971466064453125,-0.07406624406576157,-0.3311156630516052
0,2021-06-08 16:02:01.8660,00:37,60,2,2021-06-08 16:02:04.2240,1623160924.224252,0.5548849701881409,-0.39890748262405396,0.009001918137073517,0.9900359511375427,-0.04914861544966698,-0.3016204535961151
0,2021-06-08 16:02:01.8660,00:37,60,2,2021-06-08 16:02:04.2390,1623160924.238882,0.5029075145721436,-0.3764130771160126,0.07756100594997406,0.9785919189453125,0.0058288052678108215,-0.2714843153953552
0,2021-06-08 16:02:01.8660,00:37,60,2,2021-06-08 16:02:04.2540,1623160924.254267,0.4442213773727417,-0.3753773868083954,0.14491795003414154,0.9850617051124573,0.01452629640698433,-0.2558287978172302
0,2021-06-08 16:02:01.8660,00:37,60,2,2021-06-08 16:02:04.2690,1623160924.268789,0.35213398933410645,-0.37870314717292786,0.19494515657424927,0.9897156953811646,0.00042719021439552307,-0.2284087836742401
0,2021-06-08 16:02:01.8660,00:37,60,2,2021-06-08 16:02:04.2840,1623160924.2843308,0.2535598874092102,-0.371860146522522,0.21243201196193695,0.9813233613967896,-0.013259939849376678,-0.21553033590316772
0,2021-06-08 16:02:01.8660,00:37,60,2,2021-06-08 16:02:04.2990,1623160924.298851,0.19790512323379517,-0.3604458272457123,0.20477381348609924,0.9792633652687073,0.0034636687487363815,-0.20855712890625
0,2021-06-08 16:02:01.8660,00:37,60,2,2021-06-08 16:02:04.3140,1623160924.3144078,0.16617971658706665,-0.33426588773727417,0.1955145299434662,0.9844207763671875,0.04406734183430672,-0.2021484375
0,2021-06-08 16:02:01.8660,00:37,60,2,2021-06-08 16:02:04.3290,1623160924.328834,0.14162829518318176,-0.3017148971557617,0.17278499901294708,0.9764862060546875,0.08627314493060112,-0.1995391547679901
0,2021-06-08 16:02:01.8660,00:37,60,2,2021-06-08 16:02:04.3440,1623160924.3444471,0.0738268569111824,-0.27784284949302673,0.1535356640815735,0.9694977402687073,0.09143058955669403,-0.1958160102367401
0,2021-06-08 16:02:01.8660,00:37,60,2,2021-06-08 16:02:04.3590,1623160924.3589,-0.015212202444672585,-0.26529669761657715,0.11847754567861557,0.9589844346046448,0.08872979879379272,-0.19667047262191772
0,2021-06-08 16:02:01.8660,00:37,60,2,2021-06-08 16:02:04.3740,1623160924.374476,-0.056424617767333984,-0.24996115267276764,0.08833322674036026,0.9580995440483093,0.09719842206686735,-0.1999512016773224
0,2021-06-08 16:02:01.8660,00:37,60,2,2021-06-08 16:02:04.3890,1623160924.389044,-0.10884561389684677,-0.2252587378025055,0.06333493441343307,0.952301025390625,0.10879510920494795,-0.20413202047348022
0,2021-06-08 16:02:01.8660,00:37,60,2,2021-06-08 16:02:04.4050,1623160924.4045029,-0.22094307839870453,-0.19950756430625916,0.04367973655462265,0.945236325263977,0.1094512464478612,-0.2071380317211151
0,2021-06-08 16:02:01.8660,00:37,60,2,2021-06-08 16:02:04.4190,1623160924.419241,-0.35789772868156433,-0.19180437922477722,0.022889770567417145,0.9327394366264343,0.09040825255215168,-0.21340948343276978
0,2021-06-08 16:02:01.8660,00:37,60,2,2021-06-08 16:02:04.4350,1623160924.4345698,-0.4453846216201782,-0.19272875785827637,-0.01188978087157011,0.9292909502983093,0.09179680421948433,-0.2211609184741974
0,2021-06-08 16:02:01.8660,00:37,60,2,2021-06-08 16:02:04.4490,1623160924.448993,-0.3801526725292206,-0.18801124393939972,-0.03020886704325676,0.9485931992530823,0.11228936724364758,-0.2458648383617401
0,2021-06-08 16:02:01.8660,00:37,60,2,2021-06-08 16:02:04.4650,1623160924.464601,-0.2893974483013153,-0.15501093864440918,-0.08092796802520752,0.949813961982727,0.13540645316243172,-0.2623595893383026
0,2021-06-08 16:02:01.8660,00:37,60,2,2021-06-08 16:02:04.4790,1623160924.479099,-0.17145828902721405,-0.12166763097047806,-0.13667325675487518,0.929702877998352,0.13595575280487537,-0.3210296630859375
0,2021-06-08 16:02:01.8660,00:37,60,2,2021-06-08 16:02:04.4950,1623160924.494563,-0.05738482251763344,-0.14072388410568237,-0.2024882286787033,0.9232483506202698,0.12661739438772202,-0.3695983588695526
0,2021-06-08 16:02:01.8660,00:37,60,2,2021-06-08 16:02:04.5090,1623160924.509097,0.0024191499687731266,-0.17622089385986328,-0.26508447527885437,0.911422848701477,0.10649102553725243,-0.4620208442211151
0,2021-06-08 16:02:01.8660,00:37,60,2,2021-06-08 16:02:04.5250,1623160924.5245728,0.04006575420498848,-0.23162288963794708,-0.32098639011383057,0.9071655869483948,0.09608456492424011,-0.4907226264476776
0,2021-06-08 16:02:01.8660,00:37,60,2,2021-06-08 16:02:04.5390,1623160924.5391068,0.05931241810321808,-0.36389756202697754,-0.3691965341567993,0.9330597519874573,0.08299248293042183,-0.5574951171875
0,2021-06-08 16:02:01.8660,00:37,60,2,2021-06-08 16:02:04.5550,1623160924.555029,0.10167106240987778,-0.4630827307701111,-0.4085788130760193,0.9403077363967896,0.11785883456468582,-0.5684814453125
0,2021-06-08 16:02:01.8660,00:37,60,2,2021-06-08 16:02:04.5690,1623160924.569133,0.22947607934474945,-0.5435935854911804,-0.4247702956199646,0.9373016357421875,0.17366023361682892,-0.6190490424633026
0,2021-06-08 16:02:01.8660,00:37,60,2,2021-06-08 16:02:04.5850,1623160924.584622,0.3995993137359619,-0.6294517517089844,-0.46467429399490356,0.9327545762062073,0.1653136871755123,-0.6415251791477203
0,2021-06-08 16:02:01.8660,00:37,60,2,2021-06-08 16:02:04.5990,1623160924.59915,0.5032172799110413,-0.7207648754119873,-0.5130511522293091,0.9421692490577698,0.17213433980941772,-0.6934661567211151
0,2021-06-08 16:02:01.8660,00:37,60,2,2021-06-08 16:02:04.6150,1623160924.614726,0.5375512838363647,-0.8468983173370361,-0.5589898824691772,0.9485321640968323,0.17472835630178452,-0.7164154052734375
0,2021-06-08 16:02:01.8660,00:37,60,2,2021-06-08 16:02:04.6290,1623160924.6294122,0.5341637134552002,-0.9942020177841187,-0.6298004388809204,0.9367218613624573,0.16584774106740952,-0.7679748237133026
0,2021-06-08 16:02:01.8660,00:37,60,2,2021-06-08 16:02:04.6450,1623160924.644758,0.5629097819328308,-1.1604474782943726,-0.7130095362663269,0.929855465888977,0.17642207443714142,-0.7904510498046875
0,2021-06-08 16:02:01.8660,00:37,60,2,2021-06-08 16:02:04.6590,1623160924.6592731,0.7599634528160095,-1.3480440378189087,-0.8017545938491821,0.9423218965530396,0.23881524801254272,-0.8437347114086151
0,2021-06-08 16:02:01.8660,00:37,60,2,2021-06-08 16:02:04.6750,1623160924.675181,1.0459215641021729,-1.5021872520446777,-0.8962051868438721,0.9485628008842468,0.2852019667625427,-0.8696595132350922
0,2021-06-08 16:02:01.8660,00:37,60,2,2021-06-08 16:02:04.6890,1623160924.689497,1.291634202003479,-1.6743297576904297,-1.0249861478805542,0.954086422920227,0.3609313294291496,-0.937530517578125
0,2021-06-08 16:02:01.8660,00:37,60,2,2021-06-08 16:02:04.7050,1623160924.704797,1.6756885051727295,-1.9462107419967651,-1.1736665964126587,0.9636536240577698,0.3713073134422302,-0.9552764892578125
0,2021-06-08 16:02:01.8660,00:37,60,2,2021-06-08 16:02:04.7190,1623160924.719356,1.979296326637268,-2.1028709411621094,-1.3313335180282593,0.9698181748390198,0.4138030409812927,-0.976409912109375
0,2021-06-08 16:02:01.8660,00:37,60,2,2021-06-08 16:02:04.7350,1623160924.734823,2.3282783031463623,-2.3012771606445312,-1.4807677268981934,0.96563720703125,0.45460502058267593,-0.9927672743797302
0,2021-06-08 16:02:01.8660,00:37,60,2,2021-06-08 16:02:04.7490,1623160924.749388,2.6040265560150146,-2.4530699253082275,-1.5983929634094238,0.974960446357727,0.4512633755803108,-1.0265656113624573
0,2021-06-08 16:02:01.8660,00:37,60,2,2021-06-08 16:02:04.7650,1623160924.765061,2.6857268810272217,-2.644845724105835,-1.688673734664917,0.966232419013977,0.44485466182231903,-1.0556640625
0,2021-06-08 16:02:01.8660,00:37,60,2,2021-06-08 16:02:04.7790,1623160924.779454,2.739879846572876,-2.85491681098938,-1.7963776588439941,0.9552307724952698,0.3959502577781677,-1.076263427734375
0,2021-06-08 16:02:01.8660,00:37,60,2,2021-06-08 16:02:04.7950,1623160924.794958,2.6387951374053955,-2.9953722953796387,-1.905287504196167,0.950271725654602,0.39344780147075653,-1.0949706435203552
0,2021-06-08 16:02:01.8660,00:37,60,2,2021-06-08 16:02:04.8090,1623160924.809444,2.5424187183380127,-3.161994218826294,-2.0046699047088623,0.9491119980812073,0.39199819415807724,-1.1081542372703552
0,2021-06-08 16:02:01.8660,00:37,60,2,2021-06-08 16:02:04.8250,1623160924.824976,2.4782207012176514,-3.2842929363250732,-2.074836492538452,0.9281769394874573,0.3792571350932121,-1.1085052490234375
0,2021-06-08 16:02:01.8660,00:37,60,2,2021-06-08 16:02:04.8390,1623160924.839464,2.416437864303589,-3.3892335891723633,-2.1500964164733887,0.8670197129249573,0.34606924653053284,-1.130096435546875
0,2021-06-08 16:02:01.8660,00:37,60,2,2021-06-08 16:02:04.8550,1623160924.854979,2.3440258502960205,-3.4374277591705322,-2.2573232650756836,0.8394775986671448,0.3584441468119621,-1.1197662353515625
0,2021-06-08 16:02:01.8660,00:37,60,2,2021-06-08 16:02:04.8700,1623160924.869508,2.4151508808135986,-3.4442262649536133,-2.3821494579315186,0.7986907958984375,0.39147938787937164,-1.1034088134765625
0,2021-06-08 16:02:01.8660,00:37,60,2,2021-06-08 16:02:04.8850,1623160924.88504,2.5156211853027344,-3.387484312057495,-2.452794075012207,0.7642669975757599,0.41622917726635933,-1.052459716796875
0,2021-06-08 16:02:01.8660,00:37,60,2,2021-06-08 16:02:04.9000,1623160924.899589,2.6897575855255127,-3.302722692489624,-2.552344799041748,0.6903076469898224,0.4011839769082144,-1.001068115234375
0,2021-06-08 16:02:01.8660,00:37,60,2,2021-06-08 16:02:04.9150,1623160924.915134,2.8168416023254395,-3.1863439083099365,-2.5985023975372314,0.6476135551929474,0.4044341202825308,-0.9766692519187927
0,2021-06-08 16:02:01.8660,00:37,60,2,2021-06-08 16:02:04.9300,1623160924.929559,2.869900941848755,-3.1099114418029785,-2.63800048828125,0.6090393662452698,0.34265126660466194,-0.90960693359375
0,2021-06-08 16:02:01.8660,00:37,60,2,2021-06-08 16:02:04.9450,1623160924.9452682,2.9284610748291016,-3.030703067779541,-2.692309617996216,0.5831909477710724,0.30166613310575485,-0.8930816650390625
0,2021-06-08 16:02:01.8660,00:37,60,2,2021-06-08 16:02:04.9600,1623160924.9596171,2.8683769702911377,-2.9186134338378906,-2.853163719177246,0.5164032131433487,0.27787771075963974,-0.9345855116844177
0,2021-06-08 16:02:01.8660,00:37,60,2,2021-06-08 16:02:04.9750,1623160924.975342,2.933180809020996,-2.778728485107422,-2.8700742721557617,0.4959564805030823,0.27050769329071045,-0.90618896484375
0,2021-06-08 16:02:01.8660,00:37,60,2,2021-06-08 16:02:04.9900,1623160924.9896688,3.023656129837036,-2.600656032562256,-2.7948198318481445,0.4486084282398224,0.21859727799892426,-0.7725219130516052
0,2021-06-08 16:02:01.8660,00:37,60,2,2021-06-08 16:02:05.0050,1623160925.0053349,2.8540754318237305,-2.42641019821167,-2.681664228439331,0.4207611382007599,0.13461290299892426,-0.7203673720359802
0,2021-06-08 16:02:01.8660,00:37,60,2,2021-06-08 16:02:05.0200,1623160925.019742,2.642155170440674,-2.2228429317474365,-2.6180124282836914,0.3559112995862961,-0.004699811339378357,-0.619842529296875
0,2021-06-08 16:02:01.8660,00:37,60,2,2021-06-08 16:02:05.0350,1623160925.035187,2.480224132537842,-1.9832500219345093,-2.560073137283325,0.3250885382294655,-0.02661147713661194,-0.6034850478172302
0,2021-06-08 16:02:01.8660,00:37,60,2,2021-06-08 16:02:05.0500,1623160925.049747,2.49235463142395,-1.7586581707000732,-2.51057767868042,0.3016815558075905,-0.0029603540897369385,-0.5925139784812927
0,2021-06-08 16:02:01.8660,00:37,60,2,2021-06-08 16:02:05.0650,1623160925.065227,2.5179126262664795,-1.5520535707473755,-2.4490628242492676,0.2920380011200905,-0.01763930916786194,-0.5877227187156677
0,2021-06-08 16:02:01.8660,00:37,60,2,2021-06-08 16:02:05.0800,1623160925.079808,2.4985036849975586,-1.4001858234405518,-2.3605754375457764,0.2714233696460724,-0.08308422565460205,-0.5990752577781677
0,2021-06-08 16:02:01.8660,00:37,60,2,2021-06-08 16:02:05.0950,1623160925.095364,2.4028818607330322,-1.273452877998352,-2.2229526042938232,0.2624664753675461,-0.13403335213661194,-0.6014708876609802
0,2021-06-08 16:02:01.8660,00:37,60,2,2021-06-08 16:02:05.1100,1623160925.1097999,2.1860299110412598,-1.1819208860397339,-2.0779483318328857,0.265686072409153,-0.20683297514915466,-0.609390139579773
0,2021-06-08 16:02:01.8660,00:37,60,2,2021-06-08 16:02:05.1250,1623160925.125457,1.9494054317474365,-1.134037733078003,-1.9534045457839966,0.2762299254536629,-0.23812881112098694,-0.6171874403953552
0,2021-06-08 16:02:01.8660,00:37,60,2,2021-06-08 16:02:05.1400,1623160925.139754,1.7762211561203003,-1.0730081796646118,-1.8433414697647095,0.2882080599665642,-0.23753365874290466,-0.627670168876648
0,2021-06-08 16:02:01.8660,00:37,60,2,2021-06-08 16:02:05.1550,1623160925.1554198,1.6457585096359253,-1.012861728668213,-1.7352648973464966,0.2913513705134392,-0.23797619342803955,-0.6222380995750427
0,2021-06-08 16:02:01.8660,00:37,60,2,2021-06-08 16:02:05.1700,1623160925.169833,1.5583410263061523,-0.9544582962989807,-1.6461044549942017,0.2761688902974129,-0.28381359577178955,-0.617416262626648
0,2021-06-08 16:02:01.8660,00:37,60,2,2021-06-08 16:02:05.2470,1623160925.246972,1.4895849227905273,-0.9159801602363586,-1.5122092962265015,0.2632294371724129,-0.3188477158546448,-0.6125792264938354
0,2021-06-08 16:02:01.8660,00:37,60,2,2021-06-08 16:02:05.2470,1623160925.247054,1.4059805870056152,-0.9097209572792053,-1.4256845712661743,0.23742681741714478,-0.37059032917022705,-0.633285403251648
0,2021-06-08 16:02:01.8660,00:37,60,2,2021-06-08 16:02:05.2470,1623160925.247079,1.294437050819397,-0.902047336101532,-1.383035659790039,0.23435981571674347,-0.3728790879249573,-0.6436004042625427
0,2021-06-08 16:02:01.8660,00:37,60,2,2021-06-08 16:02:05.2470,1623160925.247098,1.2558799982070923,-0.8905001282691956,-1.3417469263076782,0.20823675394058228,-0.37113964557647705,-0.6644744277000427
0,2021-06-08 16:02:01.8660,00:37,60,2,2021-06-08 16:02:05.2470,1623160925.247118,1.198927879333496,-0.8754761815071106,-1.3168210983276367,0.19868475943803787,-0.37448132038116455,-0.6938170790672302
0,2021-06-08 16:02:01.8660,00:37,60,2,2021-06-08 16:02:05.2600,1623160925.2601352,1.1619222164154053,-0.8839468955993652,-1.2883048057556152,0.20089729130268097,-0.42137157917022705,-0.7273711562156677
0,2021-06-08 16:02:01.8660,00:37,60,2,2021-06-08 16:02:05.2750,1623160925.275409,1.1061896085739136,-0.9283918142318726,-1.2205204963684082,0.21176155656576157,-0.45303356647491455,-0.7324675917625427
0,2021-06-08 16:02:01.8660,00:37,60,2,2021-06-08 16:02:05.2910,1623160925.2905421,0.9433887600898743,-0.9634712338447571,-1.1126419305801392,0.22227485477924347,-0.5654602646827698,-0.738693118095398
0,2021-06-08 16:02:01.8660,00:37,60,2,2021-06-08 16:02:05.3050,1623160925.3052669,0.7213432788848877,-1.0242412090301514,-1.0130500793457031,0.22183236479759216,-0.613052487373352,-0.731887698173523
0,2021-06-08 16:02:01.8660,00:37,60,2,2021-06-08 16:02:05.3200,1623160925.3198528,9.324188232421875,0.8562166094779968,0.6175486445426941,4.267532579600811,-0.38841259479522705,6.382888972759247
0,2021-06-08 16:02:01.8660,00:37,60,2,2021-06-08 16:02:05.3350,1623160925.335328,-2.0982182025909424,1.2075860500335693,-2.4492790699005127,-0.8450011163949966,-1.720474362373352,-0.7448729872703552
0,2021-06-08 16:02:01.8660,00:37,60,2,2021-06-08 16:02:05.3500,1623160925.3498669,0.02070491947233677,-0.5269354581832886,1.1450963020324707,-0.6476439833641052,-0.18605047464370728,-1.0973203778266907
0,2021-06-08 16:02:01.8660,00:37,60,2,2021-06-08 16:02:05.3660,1623160925.366044,-0.18057943880558014,0.972446858882904,-0.4468313753604889,-0.48907460272312164,-1.8152620196342468,-1.166061282157898
0,2021-06-08 16:02:01.8660,00:37,60,2,2021-06-08 16:02:05.3800,1623160925.3799849,-1.194652795791626,4.4967241287231445,0.6192029714584351,-1.5355681329965591,-1.376937985420227,-1.4391935467720032
0,2021-06-08 16:02:01.8660,00:37,60,2,2021-06-08 16:02:05.3960,1623160925.39555,-2.2652547359466553,0.37638211250305176,2.1219632625579834,-0.14952079951763153,-0.9982911348342896,-1.0274657607078552
0,2021-06-08 16:02:01.8660,00:37,60,2,2021-06-08 16:02:05.4100,1623160925.40992,-3.9954681396484375,-0.892119824886322,1.0557364225387573,1.5698090344667435,-0.759536862373352,-0.525222659111023
0,2021-06-08 16:02:01.8660,00:37,60,2,2021-06-08 16:02:05.4260,1623160925.425599,-3.3607468605041504,-1.0261131525039673,1.0129510164260864,1.1230011656880379,-0.636215329170227,-0.5447386503219604
0,2021-06-08 16:02:01.8660,00:37,60,2,2021-06-08 16:02:05.4400,1623160925.440078,-2.4094088077545166,-0.4017866253852844,1.1625466346740723,0.20834358036518097,-0.39147961139678955,-0.46742236614227295
0,2021-06-08 16:02:01.8660,00:37,60,2,2021-06-08 16:02:05.4550,1623160925.455378,-1.2535508871078491,0.1990422010421753,1.1173946857452393,0.06694038212299347,-0.36987316608428955,-0.43852221965789795
0,2021-06-08 16:02:01.8660,00:37,60,2,2021-06-08 16:02:05.4700,1623160925.470007,-0.818501889705658,0.38699641823768616,1.2706273794174194,0.30488593876361847,-0.49871838092803955,-0.37484729290008545
0,2021-06-08 16:02:01.8660,00:37,60,2,2021-06-08 16:02:05.4860,1623160925.485584,-1.0451045036315918,0.4284149706363678,1.306143045425415,0.39488228410482407,-0.5298463106155396,-0.3413237929344177
0,2021-06-08 16:02:01.8660,00:37,60,2,2021-06-08 16:02:05.5000,1623160925.500002,-1.2949234247207642,0.5236778259277344,1.329686164855957,0.3386688753962517,-0.5142822861671448,-0.38702380657196045
0,2021-06-08 16:02:01.8660,00:37,60,2,2021-06-08 16:02:05.5160,1623160925.5155091,-1.4748934507369995,0.6875916719436646,1.3759329319000244,0.2930756248533726,-0.4699555039405823,-0.42857348918914795
0,2021-06-08 16:02:01.8660,00:37,60,2,2021-06-08 16:02:05.5300,1623160925.530493,-1.6614397764205933,0.8173568248748779,1.472635269165039,0.2510223984718323,-0.43209850788116455,-0.5408934354782104
0,2021-06-08 16:02:01.8660,00:37,60,2,2021-06-08 16:02:05.5460,1623160925.545687,-1.882805347442627,0.9314855337142944,1.5507827997207642,0.23156744986772537,-0.4089815020561218,-0.5870665907859802
0,2021-06-08 16:02:01.8660,00:37,60,2,2021-06-08 16:02:05.5600,1623160925.560075,-2.0644071102142334,1.049727439880371,1.6300119161605835,0.19902044162154198,-0.34782421588897705,-0.6730498671531677
0,2021-06-08 16:02:01.8660,00:37,60,2,2021-06-08 16:02:05.5760,1623160925.5756888,-2.214531898498535,1.1358884572982788,1.713303804397583,0.18861395493149757,-0.31103530526161194,-0.7015380263328552
0,2021-06-08 16:02:01.8660,00:37,60,2,2021-06-08 16:02:05.5900,1623160925.590313,-2.2698683738708496,1.0875022411346436,1.8244010210037231,0.19837957620620728,-0.28128063678741455,-0.7571257948875427
0,2021-06-08 16:02:01.8660,00:37,60,2,2021-06-08 16:02:05.6060,1623160925.605911,-2.384983777999878,1.1409425735473633,1.9321130514144897,0.19679265469312668,-0.25248730182647705,-0.7424773573875427
0,2021-06-08 16:02:01.8660,00:37,60,2,2021-06-08 16:02:05.6200,1623160925.620261,-2.4720466136932373,1.2428297996520996,2.058197259902954,0.17280583828687668,-0.20877087116241455,-0.7201232314109802
0,2021-06-08 16:02:01.8660,00:37,60,2,2021-06-08 16:02:05.6360,1623160925.635788,-2.6887266635894775,1.3421694040298462,2.1722826957702637,0.17179874330759048,-0.22312939167022705,-0.7034758925437927
0,2021-06-08 16:02:01.8660,00:37,60,2,2021-06-08 16:02:05.6520,1623160925.651626,-3.0659987926483154,1.3656233549118042,2.337921142578125,0.18434147536754608,-0.24855053424835205,-0.7016143202781677
0,2021-06-08 16:02:01.8660,00:37,60,2,2021-06-08 16:02:05.6660,1623160925.665866,-3.4440407752990723,1.3733491897583008,2.4758665561676025,0.18927005678415298,-0.22428905963897705,-0.6931762099266052
0,2021-06-08 16:02:01.8660,00:37,60,2,2021-06-08 16:02:05.6810,1623160925.68053,-3.6599159240722656,1.3625096082687378,2.5947420597076416,0.19531253725290298,-0.11849987506866455,-0.7060394287109375
0,2021-06-08 16:02:01.8660,00:37,60,2,2021-06-08 16:02:05.6960,1623160925.696038,-3.6775596141815186,1.3854910135269165,2.6700479984283447,0.2004242241382599,-0.04432690143585205,-0.7013702392578125
0,2021-06-08 16:02:01.8660,00:37,60,2,2021-06-08 16:02:05.7100,1623160925.710422,-3.5059711933135986,1.4365185499191284,2.7131948471069336,0.2083740532398224,0.09487904608249664,-0.7123260498046875
0,2021-06-08 16:02:01.8660,00:37,60,2,2021-06-08 16:02:05.7260,1623160925.726095,-3.245995044708252,1.5264780521392822,2.6956400871276855,0.2095642387866974,0.17274464666843414,-0.7287291884422302
0,2021-06-08 16:02:01.8660,00:37,60,2,2021-06-08 16:02:05.7410,1623160925.740773,-2.812110424041748,1.5940048694610596,2.6381657123565674,0.2252960503101349,0.31443776935338974,-0.7791290283203125
0,2021-06-08 16:02:01.8660,00:37,60,2,2021-06-08 16:02:05.7560,1623160925.7560291,-2.4164865016937256,1.6918514966964722,2.6081433296203613,0.2347259819507599,0.35902394354343414,-0.8282928466796875
0,2021-06-08 16:02:01.8660,00:37,60,2,2021-06-08 16:02:05.7710,1623160925.770611,-2.170437812805176,1.811776876449585,2.6182098388671875,0.2500000149011612,0.3697813842445612,-0.8628692030906677
0,2021-06-08 16:02:01.8660,00:37,60,2,2021-06-08 16:02:05.7860,1623160925.786093,-2.0482985973358154,1.898083209991455,2.6429061889648438,0.2616730034351349,0.32949818298220634,-0.8678131103515625
0,2021-06-08 16:02:01.8660,00:37,60,2,2021-06-08 16:02:05.8010,1623160925.800713,-1.995375156402588,1.9984639883041382,2.666785955429077,0.2846527695655823,0.24763480573892593,-0.8846282958984375
0,2021-06-08 16:02:01.8660,00:37,60,2,2021-06-08 16:02:05.8160,1623160925.8161402,-1.9986624717712402,2.1335175037384033,2.6141116619110107,0.3243255615234375,0.28532399237155914,-0.8790892958641052
0,2021-06-08 16:02:01.8660,00:37,60,2,2021-06-08 16:02:05.8310,1623160925.8307219,-2.033926010131836,2.2221999168395996,2.539991855621338,0.463104248046875,0.35626211017370224,-0.8940277099609375
0,2021-06-08 16:02:01.8660,00:37,60,2,2021-06-08 16:02:05.8460,1623160925.846284,-2.0306801795959473,2.2559311389923096,2.475137710571289,0.5254211723804474,0.37336722016334534,-0.878448486328125
0,2021-06-08 16:02:01.8660,00:37,60,2,2021-06-08 16:02:05.8610,1623160925.8607059,-2.054142475128174,2.2874643802642822,2.4023797512054443,0.5837250053882599,0.35092154890298843,-0.9044647216796875
0,2021-06-08 16:02:01.8660,00:37,60,2,2021-06-08 16:02:05.8760,1623160925.876172,-2.0438740253448486,2.357166051864624,2.3329415321350098,0.5764618217945099,0.36419668793678284,-0.90667724609375
0,2021-06-08 16:02:01.8660,00:37,60,2,2021-06-08 16:02:05.8910,1623160925.8908029,-1.9697747230529785,2.427142381668091,2.1839964389801025,0.5817566215991974,0.4305419325828552,-0.950042724609375
0,2021-06-08 16:02:01.8660,00:37,60,2,2021-06-08 16:02:05.9060,1623160925.906196,-1.8813714981079102,2.4858245849609375,2.0958774089813232,0.6105652451515198,0.4756011366844177,-0.934906005859375
0,2021-06-08 16:02:01.8660,00:37,60,2,2021-06-08 16:02:05.9210,1623160925.9207869,-1.6714261770248413,2.518620014190674,1.9949895143508911,0.6919098496437073,0.49243156611919403,-0.9238739013671875
0,2021-06-08 16:02:01.8660,00:37,60,2,2021-06-08 16:02:05.9360,1623160925.936335,-1.4958776235580444,2.5604586601257324,1.8837522268295288,0.7254639267921448,0.4851683974266052,-0.9235382080078125
0,2021-06-08 16:02:01.8660,00:37,60,2,2021-06-08 16:02:05.9510,1623160925.9510078,-1.282596468925476,2.5752482414245605,1.8126674890518188,0.7604675889015198,0.44757071137428284,-0.897674560546875
0,2021-06-08 16:02:01.8660,00:37,60,2,2021-06-08 16:02:05.9670,1623160925.966937,-1.1362602710723877,2.589529275894165,1.675795078277588,0.7767487168312073,0.4322661757469177,-0.9129180908203125
0,2021-06-08 16:02:01.8660,00:37,60,2,2021-06-08 16:02:05.9810,1623160925.9808788,-0.9569339156150818,2.5858137607574463,1.558541178703308,0.8323517441749573,0.41874685883522034,-0.9046630859375
0,2021-06-08 16:02:01.8660,00:37,60,2,2021-06-08 16:02:05.9960,1623160925.996381,-0.7871531248092651,2.5732851028442383,1.445496916770935,0.8615112900733948,0.39358513057231903,-0.8914337158203125
0,2021-06-08 16:02:01.8660,00:37,60,2,2021-06-08 16:02:06.0110,1623160926.0109382,-0.6391640305519104,2.551068067550659,1.3331620693206787,0.9052886962890625,0.3432921916246414,-0.8476409912109375
0,2021-06-08 16:02:01.8660,00:37,60,2,2021-06-08 16:02:06.0260,1623160926.026433,-0.5139771103858948,2.506054162979126,1.2231650352478027,0.9288483262062073,0.3246917128562927,-0.83099365234375
0,2021-06-08 16:02:01.8660,00:37,60,2,2021-06-08 16:02:06.0410,1623160926.0409951,-0.4252864122390747,2.447120189666748,1.1335073709487915,0.9765778183937073,0.2993773818016052,-0.81060791015625
0,2021-06-08 16:02:01.8660,00:37,60,2,2021-06-08 16:02:06.0560,1623160926.056476,-0.407512903213501,2.3592326641082764,1.0375220775604248,0.9960786700248718,0.2913207560777664,-0.7835693955421448
0,2021-06-08 16:02:01.8660,00:37,60,2,2021-06-08 16:02:06.0710,1623160926.070946,-0.3512936532497406,2.2364230155944824,0.9349859356880188,1.0247955918312073,0.2783507630228996,-0.76324462890625
0,2021-06-08 16:02:01.8660,00:37,60,2,2021-06-08 16:02:06.0870,1623160926.086688,-0.24615903198719025,2.1086761951446533,0.8447995781898499,1.032486081123352,0.2732848450541496,-0.7672729194164276
0,2021-06-08 16:02:01.8660,00:37,60,2,2021-06-08 16:02:06.1010,1623160926.1010342,-0.12069591134786606,1.96052885055542,0.7478839755058289,1.041000485420227,0.2785186171531677,-0.7652435302734375
0,2021-06-08 16:02:01.8660,00:37,60,2,2021-06-08 16:02:06.1160,1623160926.116349,0.007820786908268929,1.7479909658432007,0.6901839375495911,1.0467682480812073,0.2740630581974983,-0.765899658203125
0,2021-06-08 16:02:01.8660,00:37,60,2,2021-06-08 16:02:06.1310,1623160926.130917,0.072910837829113,1.5754916667938232,0.6235164999961853,1.0393829941749573,0.2570952847599983,-0.7478026747703552
0,2021-06-08 16:02:01.8660,00:37,60,2,2021-06-08 16:02:06.1470,1623160926.146556,0.11180497705936432,1.375036597251892,0.4725314974784851,1.0403443574905396,0.22024530172348022,-0.743408203125
0,2021-06-08 16:02:01.8660,00:37,60,2,2021-06-08 16:02:06.1610,1623160926.161185,0.12395324558019638,1.1684825420379639,0.41086599230766296,1.025741696357727,0.19703667983412743,-0.706634521484375
0,2021-06-08 16:02:01.8660,00:37,60,2,2021-06-08 16:02:06.1770,1623160926.1766071,0.08397262543439865,0.9770322442054749,0.3547374904155731,1.0149385333061218,0.17504874244332314,-0.7007445991039276
0,2021-06-08 16:02:01.8660,00:37,60,2,2021-06-08 16:02:06.1910,1623160926.191109,-0.056039635092020035,0.7632067799568176,0.3197565972805023,1.0112610459327698,0.11824028193950653,-0.675445556640625
0,2021-06-08 16:02:01.8660,00:37,60,2,2021-06-08 16:02:06.2070,1623160926.206739,-0.2879454493522644,0.5471804738044739,0.28857073187828064,1.0090181827545166,0.08953851833939552,-0.6559906005859375
0,2021-06-08 16:02:01.8660,00:37,60,2,2021-06-08 16:02:06.2210,1623160926.221206,-0.5461258292198181,0.3301784098148346,0.27223968505859375,0.9853821992874146,0.05075065605342388,-0.6289367377758026
0,2021-06-08 16:02:01.8660,00:37,60,2,2021-06-08 16:02:06.2370,1623160926.236943,-0.7255431413650513,0.09012237936258316,0.2495996057987213,0.9743348360061646,0.04231255128979683,-0.6114653944969177
0,2021-06-08 16:02:01.8660,00:37,60,2,2021-06-08 16:02:06.2510,1623160926.2511911,-0.8302504420280457,-0.03861908242106438,0.21793383359909058,0.954422116279602,0.07150260359048843,-0.5982513129711151
0,2021-06-08 16:02:01.8660,00:37,60,2,2021-06-08 16:02:06.2670,1623160926.266597,-0.8083531260490417,-0.13462790846824646,0.17489048838615417,0.9411622285842896,0.08923333138227463,-0.5880127251148224
0,2021-06-08 16:02:01.8660,00:37,60,2,2021-06-08 16:02:06.2810,1623160926.2814531,-0.7574278712272644,-0.18560613691806793,0.13524267077445984,0.9213562607765198,0.12394707277417183,-0.5673980712890625
0,2021-06-08 16:02:01.8660,00:37,60,2,2021-06-08 16:02:06.2970,1623160926.297223,-0.6809374690055847,-0.2390536516904831,0.0877356082201004,0.9220733642578125,0.13157647103071213,-0.5573272407054901
0,2021-06-08 16:02:01.8660,00:37,60,2,2021-06-08 16:02:06.3110,1623160926.3112268,-0.5715653896331787,-0.3143678307533264,0.05178240314126015,0.9232330918312073,0.13754267245531082,-0.5359039008617401
0,2021-06-08 16:02:01.8660,00:37,60,2,2021-06-08 16:02:06.3270,1623160926.326802,-0.5031577348709106,-0.3201644718647003,0.02568688802421093,0.920181393623352,0.13996878638863564,-0.5230865478515625
0,2021-06-08 16:02:01.8660,00:37,60,2,2021-06-08 16:02:06.3410,1623160926.341343,-0.47308188676834106,-0.33644089102745056,0.0017032595351338387,0.906753659248352,0.12773124873638153,-0.5069732069969177
0,2021-06-08 16:02:01.8660,00:37,60,2,2021-06-08 16:02:06.3570,1623160926.3567939,-0.46841490268707275,-0.3784954249858856,-0.024232733994722366,0.9085085391998291,0.11999504268169403,-0.5021362006664276
0,2021-06-08 16:02:01.8660,00:37,60,2,2021-06-08 16:02:06.3710,1623160926.3713999,-0.4759458601474762,-0.39011478424072266,-0.05375227704644203,0.901885986328125,0.12280267477035522,-0.4851378798484802
0,2021-06-08 16:02:01.8660,00:37,60,2,2021-06-08 16:02:06.3870,1623160926.38696,-0.4529714286327362,-0.42007240653038025,-0.08346489816904068,0.9004213809967041,0.13153072074055672,-0.4841918647289276
0,2021-06-08 16:02:01.8660,00:37,60,2,2021-06-08 16:02:06.4010,1623160926.4013572,-0.435763418674469,-0.41700100898742676,-0.10730684548616409,0.894241452217102,0.14581291750073433,-0.4730224013328552
0,2021-06-08 16:02:01.8660,00:37,60,2,2021-06-08 16:02:06.4170,1623160926.4169211,-0.4185998737812042,-0.42081597447395325,-0.12714526057243347,0.8914796113967896,0.14389031007885933,-0.4707336127758026
0,2021-06-08 16:02:01.8660,00:37,60,2,2021-06-08 16:02:06.4320,1623160926.4316359,-0.38345998525619507,-0.4373970925807953,-0.14572933316230774,0.8936920762062073,0.13093560189008713,-0.4595794379711151
0,2021-06-08 16:02:01.8660,00:37,60,2,2021-06-08 16:02:06.4470,1623160926.44713,-0.3629227578639984,-0.42128655314445496,-0.15524987876415253,0.8890382051467896,0.13243096321821213,-0.4496917426586151
0,2021-06-08 16:02:01.8660,00:37,60,2,2021-06-08 16:02:06.4610,1623160926.4614758,-0.3438052833080292,-0.40103667974472046,-0.16646550595760345,0.8701782822608948,0.12071222811937332,-0.4409637451171875
0,2021-06-08 16:02:01.8660,00:37,60,2,2021-06-08 16:02:06.4770,1623160926.476929,-0.340532511472702,-0.3822464644908905,-0.17884360253810883,0.86810302734375,0.11770623177289963,-0.4367827773094177
0,2021-06-08 16:02:01.8660,00:37,60,2,2021-06-08 16:02:06.4910,1623160926.49143,-0.32481878995895386,-0.3680206835269928,-0.18512041866779327,0.871063232421875,0.12654107809066772,-0.4244842231273651
0,2021-06-08 16:02:01.8660,00:37,60,2,2021-06-08 16:02:06.5070,1623160926.5074282,-0.26849812269210815,-0.3468032777309418,-0.191454216837883,0.8703308701515198,0.13029471784830093,-0.4242401123046875
0,2021-06-08 16:02:01.8660,00:37,60,2,2021-06-08 16:02:06.5210,1623160926.521469,-0.21231341361999512,-0.32112133502960205,-0.1894262135028839,0.8781128525733948,0.13577266782522202,-0.4257965087890625
0,2021-06-08 16:02:01.8660,00:37,60,2,2021-06-08 16:02:06.5370,1623160926.537327,-0.1630730926990509,-0.28481099009513855,-0.1916949599981308,0.879608154296875,0.13674921542406082,-0.4245147705078125
0,2021-06-08 16:02:01.8660,00:37,60,2,2021-06-08 16:02:06.5520,1623160926.551608,-0.11135540157556534,-0.2626415193080902,-0.1995670050382614,0.8769227266311646,0.13336176425218582,-0.4304656684398651
0,2021-06-08 16:02:01.8660,00:37,60,2,2021-06-08 16:02:06.5670,1623160926.567116,-0.046822138130664825,-0.2193467915058136,-0.20553834736347198,0.8772279024124146,0.13365167379379272,-0.4339599609375
0,2021-06-08 16:02:01.8660,00:37,60,2,2021-06-08 16:02:06.5820,1623160926.581593,0.02824864163994789,-0.18626314401626587,-0.21681256592273712,0.8879547715187073,0.14335627853870392,-0.4454651176929474
0,2021-06-08 16:02:01.8660,00:37,60,2,2021-06-08 16:02:06.5970,1623160926.597126,0.11751950532197952,-0.15467458963394165,-0.2389003038406372,0.8883515000343323,0.14649957418441772,-0.4551086127758026
0,2021-06-08 16:02:01.8660,00:37,60,2,2021-06-08 16:02:06.6120,1623160926.611695,0.21204018592834473,-0.12182822078466415,-0.2591560482978821,0.8886870741844177,0.14930716902017593,-0.4768218398094177
0,2021-06-08 16:02:01.8660,00:37,60,2,2021-06-08 16:02:06.6270,1623160926.627126,0.3549584150314331,-0.1034713163971901,-0.3014898896217346,0.888427734375,0.14973443746566772,-0.4921416640281677
0,2021-06-08 16:02:01.8660,00:37,60,2,2021-06-08 16:02:06.6420,1623160926.6417031,0.5223293304443359,-0.07042122632265091,-0.3332321047782898,0.8904266953468323,0.1711730659008026,-0.5307159721851349
0,2021-06-08 16:02:01.8660,00:37,60,2,2021-06-08 16:02:06.6570,1623160926.657217,0.7220542430877686,-0.06581076234579086,-0.37505361437797546,0.8885651230812073,0.17132562398910522,-0.5632171928882599
0,2021-06-08 16:02:01.8660,00:37,60,2,2021-06-08 16:02:06.6720,1623160926.671654,0.9598914980888367,-0.07050138711929321,-0.42746567726135254,0.8884888291358948,0.18740838021039963,-0.6371917426586151
0,2021-06-08 16:02:01.8660,00:37,60,2,2021-06-08 16:02:06.6870,1623160926.687166,1.2909834384918213,-0.1514233946800232,-0.48042452335357666,0.9034424424171448,0.19834891706705093,-0.6850128173828125
0,2021-06-08 16:02:01.8660,00:37,60,2,2021-06-08 16:02:06.7020,1623160926.70174,1.7840439081192017,-0.30203020572662354,-0.5740439295768738,0.9251099228858948,0.24328605830669403,-0.7837218940258026
0,2021-06-08 16:02:01.8660,00:37,60,2,2021-06-08 16:02:06.7170,1623160926.717372,2.6943435668945312,-0.4262743890285492,-0.6985943913459778,0.9423828721046448,0.2714232802391052,-0.8285979926586151
0,2021-06-08 16:02:01.8660,00:37,60,2,2021-06-08 16:02:06.7320,1623160926.731812,3.8147482872009277,-0.5227551460266113,-0.833376407623291,0.9219361543655396,0.3967131972312927,-0.9244537055492401
0,2021-06-08 16:02:01.8660,00:37,60,2,2021-06-08 16:02:06.7470,1623160926.74736,4.6398186683654785,-0.5960636734962463,-0.9000809192657471,0.9108277559280396,0.4620971232652664,-0.9644622802734375
0,2021-06-08 16:02:01.8660,00:37,60,2,2021-06-08 16:02:06.7620,1623160926.761987,4.984743118286133,-0.745438814163208,-0.9006420373916626,0.9521637558937073,0.34140007197856903,-0.9891815185546875
0,2021-06-08 16:02:01.8660,00:37,60,2,2021-06-08 16:02:06.7770,1623160926.777314,4.628820896148682,-1.1544753313064575,-0.807664692401886,1.0028381943702698,0.22462457045912743,-1.0256347060203552
0,2021-06-08 16:02:01.8660,00:37,60,2,2021-06-08 16:02:06.7920,1623160926.791792,3.8120455741882324,-1.5857210159301758,-0.6772577166557312,1.0698090195655823,-0.05683907767524943,-1.0349883437156677
0,2021-06-08 16:02:01.8660,00:37,60,2,2021-06-08 16:02:06.8070,1623160926.807394,2.9580183029174805,-1.930073857307434,-0.509913444519043,1.0640564560890198,-0.12892158515751362,-1.0410155653953552
0,2021-06-08 16:02:01.8660,00:37,60,2,2021-06-08 16:02:06.8220,1623160926.821924,2.285918712615967,-2.212493658065796,-0.3836044669151306,1.0289459824562073,-0.23107922077178955,-1.0701140761375427
0,2021-06-08 16:02:01.8660,00:37,60,2,2021-06-08 16:02:06.8370,1623160926.837378,1.8906644582748413,-2.4346389770507812,-0.269095242023468,1.0099640488624573,-0.20179757103323936,-1.091461181640625
0,2021-06-08 16:02:01.8660,00:37,60,2,2021-06-08 16:02:06.8550,1623160926.8548841,1.7042957544326782,-2.584103584289551,-0.22598768770694733,0.9996949434280396,-0.12980664521455765,-1.1569365859031677
0,2021-06-08 16:02:01.8660,00:37,60,2,2021-06-08 16:02:06.8680,1623160926.8676062,1.6806387901306152,-2.7270395755767822,-0.24505886435508728,1.0045776963233948,-0.06536874175071716,-1.16265869140625
0,2021-06-08 16:02:01.8660,00:37,60,2,2021-06-08 16:02:06.8820,1623160926.882279,1.749833106994629,-2.9197237491607666,-0.3062223494052887,1.0094910860061646,-0.01646433025598526,-1.1738585829734802
0,2021-06-08 16:02:01.8660,00:37,60,2,2021-06-08 16:02:06.8970,1623160926.8974152,1.8490194082260132,-3.013026237487793,-0.39479589462280273,0.9887848496437073,0.025604121387004852,-1.16680908203125
0,2021-06-08 16:02:01.8660,00:37,60,2,2021-06-08 16:02:06.9120,1623160926.9120169,2.032775640487671,-3.1496777534484863,-0.4336727261543274,0.9467468857765198,0.10464467108249664,-1.1442412734031677
0,2021-06-08 16:02:01.8660,00:37,60,2,2021-06-08 16:02:06.9280,1623160926.927678,2.118316411972046,-3.294238805770874,-0.43091660737991333,0.9223328232765198,0.11721788346767426,-1.1412505507469177
0,2021-06-08 16:02:01.8660,00:37,60,2,2021-06-08 16:02:06.9420,1623160926.942,2.19187331199646,-3.3574059009552,-0.4494423568248749,0.8542633652687073,0.09194938838481903,-1.1157073378562927
0,2021-06-08 16:02:01.8660,00:37,60,2,2021-06-08 16:02:06.9580,1623160926.957578,2.2437498569488525,-3.376168966293335,-0.544434666633606,0.82891845703125,0.13998407125473022,-1.1360930800437927
0,2021-06-08 16:02:01.8660,00:37,60,2,2021-06-08 16:02:06.9720,1623160926.9720402,2.308730363845825,-3.4058120250701904,-0.6572509407997131,0.8184509873390198,0.19589222967624664,-1.1253203749656677
0,2021-06-08 16:02:01.8660,00:37,60,2,2021-06-08 16:02:06.9880,1623160926.987726,2.416574239730835,-3.407870292663574,-0.7140300273895264,0.7998962700366974,0.20764146745204926,-1.0858153700828552
0,2021-06-08 16:02:01.8660,00:37,60,2,2021-06-08 16:02:07.0020,1623160927.0022259,2.5012824535369873,-3.3548030853271484,-0.7213952541351318,0.7174988090991974,0.16098010540008545,-0.9996489882469177
0,2021-06-08 16:02:01.8660,00:37,60,2,2021-06-08 16:02:07.0180,1623160927.0175772,2.43953800201416,-3.293140172958374,-0.7342743873596191,0.6801452934741974,0.12165820598602295,-0.9716185927391052
0,2021-06-08 16:02:01.8660,00:37,60,2,2021-06-08 16:02:07.0320,1623160927.032094,2.3108882904052734,-3.2400927543640137,-0.7246731519699097,0.6364441215991974,0.05184924602508545,-0.9164733290672302
0,2021-06-08 16:02:01.8660,00:37,60,2,2021-06-08 16:02:07.0480,1623160927.047785,2.162231206893921,-3.1944773197174072,-0.7139714956283569,0.6262970268726349,0.01980575919151306,-0.8807219862937927
0,2021-06-08 16:02:01.8660,00:37,60,2,2021-06-08 16:02:07.0620,1623160927.062166,2.0631492137908936,-3.1472926139831543,-0.7056232690811157,0.5868225395679474,-0.00920116901397705,-0.8244780898094177
0,2021-06-08 16:02:01.8660,00:37,60,2,2021-06-08 16:02:07.0780,1623160927.077557,2.0175399780273438,-3.0629425048828125,-0.662129819393158,0.5444793850183487,-0.030731379985809326,-0.8036803603172302
0,2021-06-08 16:02:01.8660,00:37,60,2,2021-06-08 16:02:07.0920,1623160927.0921369,1.9873790740966797,-2.962066650390625,-0.6449170112609863,0.4652100056409836,-0.08454906940460205,-0.7535552382469177
0,2021-06-08 16:02:01.8660,00:37,60,2,2021-06-08 16:02:07.1080,1623160927.107675,1.8992533683776855,-2.8552937507629395,-0.6099715828895569,0.4291382133960724,-0.08956921100616455,-0.7391662001609802
0,2021-06-08 16:02:01.8660,00:37,60,2,2021-06-08 16:02:07.1220,1623160927.122233,1.800303339958191,-2.7513527870178223,-0.5894045233726501,0.3797302320599556,-0.12088024616241455,-0.7082366347312927
0,2021-06-08 16:02:01.8660,00:37,60,2,2021-06-08 16:02:07.1380,1623160927.137682,1.7185943126678467,-2.6439831256866455,-0.6065872311592102,0.3587646558880806,-0.10908520221710205,-0.6919859647750854
0,2021-06-08 16:02:01.8660,00:37,60,2,2021-06-08 16:02:07.1540,1623160927.153826,1.7472350597381592,-2.5362277030944824,-0.6333138942718506,0.3231353834271431,-0.09989935159683228,-0.658370852470398
0,2021-06-08 16:02:01.8660,00:37,60,2,2021-06-08 16:02:07.1680,1623160927.168056,1.7741010189056396,-2.387298107147217,-0.6654872894287109,0.30122377537190914,-0.10110491514205933,-0.6314086318016052
0,2021-06-08 16:02:01.8660,00:37,60,2,2021-06-08 16:02:07.1820,1623160927.1823149,1.7813676595687866,-2.240844488143921,-0.707403838634491,0.2531280763214454,-0.14309710264205933,-0.6056517958641052
0,2021-06-08 16:02:01.8660,00:37,60,2,2021-06-08 16:02:07.1980,1623160927.1980948,1.7569653987884521,-2.0923397541046143,-0.7476822733879089,0.23551942966878414,-0.16465777158737183,-0.5936583876609802
0,2021-06-08 16:02:01.8660,00:37,60,2,2021-06-08 16:02:07.2120,1623160927.212271,1.6950724124908447,-1.9739023447036743,-0.7902742624282837,0.2179413139820099,-0.22145098447799683,-0.5703734159469604
0,2021-06-08 16:02:01.8660,00:37,60,2,2021-06-08 16:02:07.2280,1623160927.227921,1.5867975950241089,-1.8563623428344727,-0.8338651061058044,0.1996917799115181,-0.25231945514678955,-0.5635833144187927
0,2021-06-08 16:02:01.8660,00:37,60,2,2021-06-08 16:02:07.2430,1623160927.242718,1.5015546083450317,-1.7403841018676758,-0.8898324966430664,0.1651611477136612,-0.3004915118217468,-0.556350588798523
0,2021-06-08 16:02:01.8660,00:37,60,2,2021-06-08 16:02:07.3080,1623160927.3077002,1.4500727653503418,-1.6038672924041748,-0.9571250081062317,0.1490326225757599,-0.30549633502960205,-0.546279788017273
0,2021-06-08 16:02:01.8660,00:37,60,2,2021-06-08 16:02:07.3080,1623160927.307788,1.4501333236694336,-1.4975453615188599,-1.006044864654541,0.1341705545783043,-0.33219921588897705,-0.5324094891548157
0,2021-06-08 16:02:01.8660,00:37,60,2,2021-06-08 16:02:07.3080,1623160927.307811,1.4140338897705078,-1.3935750722885132,-1.0386369228363037,0.12257387489080429,-0.3605958819389343,-0.5229185819625854
0,2021-06-08 16:02:01.8660,00:37,60,2,2021-06-08 16:02:07.3080,1623160927.307832,1.3244783878326416,-1.3037077188491821,-1.0604522228240967,0.10052493959665298,-0.42950451374053955,-0.49235522747039795
0,2021-06-08 16:02:01.8660,00:37,60,2,2021-06-08 16:02:07.3190,1623160927.3192658,1.2206029891967773,-1.1953372955322266,-1.1077821254730225,0.09327699989080429,-0.4560853838920593,-0.48004138469696045
0,2021-06-08 16:02:01.8660,00:37,60,2,2021-06-08 16:02:07.3330,1623160927.332632,1.1941388845443726,-1.113633394241333,-1.1309590339660645,0.06907658278942108,-0.5125123858451843,-0.47775256633758545
0,2021-06-08 16:02:01.8660,00:37,60,2,2021-06-08 16:02:07.3490,1623160927.3494592,1.1433075666427612,-1.0079541206359863,-1.153672695159912,0.05476382374763489,-0.5408174395561218,-0.46897876262664795
0,2021-06-08 16:02:01.8660,00:37,60,2,2021-06-08 16:02:07.3620,1623160927.3623428,1.0768425464630127,-0.9428035616874695,-1.1531522274017334,0.04016116261482239,-0.596542477607727,-0.48587024211883545
0,2021-06-08 16:02:01.8660,00:37,60,2,2021-06-08 16:02:07.3780,1623160927.377748,1.0177147388458252,-0.923272967338562,-1.1510462760925293,0.04450991749763489,-0.627914547920227,-0.49099719524383545
0,2021-06-08 16:02:01.8660,00:37,60,2,2021-06-08 16:02:07.3920,1623160927.392421,0.9379919767379761,-0.864838182926178,-1.1770567893981934,0.02243046462535858,-0.6452943086624146,-0.4955899715423584
0,2021-06-08 16:02:01.8660,00:37,60,2,2021-06-08 16:02:07.4080,1623160927.407794,0.8628168702125549,-0.8205316662788391,-1.173563838005066,0.0070343464612960815,-0.654983639717102,-0.49882495403289795
0,2021-06-08 16:02:01.8660,00:37,60,2,2021-06-08 16:02:07.4220,1623160927.42242,0.8015449643135071,-0.8170128464698792,-1.1586991548538208,0.013137858361005783,-0.6924440264701843,-0.524581789970398
0,2021-06-08 16:02:01.8660,00:37,60,2,2021-06-08 16:02:07.4380,1623160927.437866,0.6916031837463379,-0.8364651203155518,-1.1319384574890137,0.028884928673505783,-0.715927243232727,-0.5296934843063354
0,2021-06-08 16:02:01.8660,00:37,60,2,2021-06-08 16:02:07.4530,1623160927.4525108,0.5711644887924194,-0.8630431890487671,-1.1001805067062378,0.03291326016187668,-0.7536165118217468,-0.5460814237594604
0,2021-06-08 16:02:01.8660,00:37,60,2,2021-06-08 16:02:07.4680,1623160927.467902,0.5164667367935181,-0.9122394919395447,-1.0611134767532349,0.02752690762281418,-0.7577821612358093,-0.5591582655906677
0,2021-06-08 16:02:01.8660,00:37,60,2,2021-06-08 16:02:07.4830,1623160927.48263,0.4714505076408386,-0.9597902297973633,-1.0226962566375732,0.03439336642622948,-0.7717743515968323,-0.5761259198188782
0,2021-06-08 16:02:01.8660,00:37,60,2,2021-06-08 16:02:07.4980,1623160927.498023,0.3935125768184662,-1.0257477760314941,-0.9466087222099304,0.04667669162154198,-0.793502926826477,-0.5845946073532104
0,2021-06-08 16:02:01.8660,00:37,60,2,2021-06-08 16:02:07.5130,1623160927.512625,0.29420119524002075,-1.1362355947494507,-0.8190339803695679,0.09123235568404198,-0.847091794013977,-0.599319338798523
0,2021-06-08 16:02:01.8660,00:37,60,2,2021-06-08 16:02:07.5280,1623160927.528119,0.1508811116218567,-1.2187821865081787,-0.7421035170555115,0.10673528909683228,-0.8503723740577698,-0.5924833416938782
0,2021-06-08 16:02:01.8660,00:37,60,2,2021-06-08 16:02:07.5430,1623160927.542825,-2.831221342086792,-14.396993637084961,0.3236543834209442,0.2892914414405823,-1.0140077471733093,-0.7728880643844604
0,2021-06-08 16:02:01.8660,00:37,60,2,2021-06-08 16:02:07.5580,1623160927.558126,2.504560947418213,0.5098453760147095,-1.497152328491211,-0.2571257911622524,0.22265613079071045,-0.9768065810203552
0,2021-06-08 16:02:01.8660,00:37,60,2,2021-06-08 16:02:07.5790,1623160927.578508,-0.8187833428382874,1.9772825241088867,0.843512773513794,0.9185486529022455,0.14347827434539795,-0.18345624208450317
0,2021-06-08 16:02:01.8660,00:37,60,2,2021-06-08 16:02:07.5890,1623160927.588643,-1.5207828283309937,2.2941932678222656,0.5645125508308411,-0.29339594580233097,-1.8919832110404968,-0.7675016522407532
0,2021-06-08 16:02:01.8660,00:37,60,2,2021-06-08 16:02:07.6030,1623160927.602514,-0.2844744324684143,-0.4495728015899658,-1.1606789827346802,-0.43229668168351054,-0.6793214678764343,-0.4960172772407532
0,2021-06-08 16:02:01.8660,00:37,60,2,2021-06-08 16:02:07.6180,1623160927.61803,0.5805865526199341,0.49863824248313904,-0.14385899901390076,-0.0013274489901959896,-0.7815554738044739,-1.025497317314148
0,2021-06-08 16:02:01.8660,00:37,60,2,2021-06-08 16:02:07.6330,1623160927.63274,-1.7345556020736694,0.6400007009506226,1.8385791778564453,-0.23918145429342985,-1.4015504717826843,-0.870834231376648
0,2021-06-08 16:02:01.8660,00:37,60,2,2021-06-08 16:02:07.6480,1623160927.648377,-4.0677714347839355,-0.738725483417511,0.9615400433540344,0.5155487675219774,-1.5424347519874573,-0.5193174481391907
0,2021-06-08 16:02:01.8660,00:37,60,2,2021-06-08 16:02:07.6630,1623160927.6625729,-3.306981086730957,-0.8573282957077026,0.8694490194320679,0.6003265716135502,-0.640518307685852,-0.34515368938446045
0,2021-06-08 16:02:01.8660,00:37,60,2,2021-06-08 16:02:07.6780,1623160927.678123,-1.8271831274032593,-0.43134212493896484,0.8180995583534241,0.3816071040928364,-0.46208202838897705,-0.3282164931297302
0,2021-06-08 16:02:01.8660,00:37,60,2,2021-06-08 16:02:07.6930,1623160927.692778,-0.8577914834022522,-0.010966416448354721,0.8043874502182007,0.14611822366714478,-0.514236569404602,-0.3206481337547302
0,2021-06-08 16:02:01.8660,00:37,60,2,2021-06-08 16:02:07.7080,1623160927.708232,-0.8847271800041199,0.1557120382785797,0.8200502991676331,0.16381840407848358,-0.6549531817436218,-0.2912139296531677
0,2021-06-08 16:02:01.8660,00:37,60,2,2021-06-08 16:02:07.7230,1623160927.722704,-1.2586113214492798,0.31129392981529236,0.8609234094619751,0.15272527188062668,-0.7431031465530396,-0.2972411513328552
0,2021-06-08 16:02:01.8660,00:37,60,2,2021-06-08 16:02:07.7380,1623160927.738394,-1.4595057964324951,0.5178476572036743,0.9152319431304932,0.12330631911754608,-0.6870423555374146,-0.32397449016571045
0,2021-06-08 16:02:01.8660,00:37,60,2,2021-06-08 16:02:07.7540,1623160927.7537498,-1.5008679628372192,0.7046622633934021,0.9649600982666016,0.08786015212535858,-0.571090817451477,-0.41719043254852295
0,2021-06-08 16:02:01.8660,00:37,60,2,2021-06-08 16:02:07.7690,1623160927.7685971,-1.4427648782730103,0.849244236946106,1.0003801584243774,0.07598881423473358,-0.543655514717102,-0.47166430950164795
0,2021-06-08 16:02:01.8660,00:37,60,2,2021-06-08 16:02:07.7830,1623160927.782825,-1.5592211484909058,0.9916724562644958,1.074605941772461,0.036651648581027985,-0.4896089434623718,-0.5496214628219604
0,2021-06-08 16:02:01.8660,00:37,60,2,2021-06-08 16:02:07.7980,1623160927.7983541,-1.7455424070358276,1.094788908958435,1.2258167266845703,0.02874760329723358,-0.48791515827178955,-0.5771178007125854
0,2021-06-08 16:02:01.8660,00:37,60,2,2021-06-08 16:02:07.8130,1623160927.812815,-2.0347514152526855,1.174138069152832,1.4112344980239868,0.03910832107067108,-0.5045471787452698,-0.598831057548523
0,2021-06-08 16:02:01.8660,00:37,60,2,2021-06-08 16:02:07.8280,1623160927.828487,-2.3067216873168945,1.2413283586502075,1.5685831308364868,0.05093386769294739,-0.5089417695999146,-0.6037902235984802
0,2021-06-08 16:02:01.8660,00:37,60,2,2021-06-08 16:02:07.8430,1623160927.8429298,-2.471524715423584,1.2992219924926758,1.7147597074508667,0.06651308387517929,-0.4680635333061218,-0.6046599745750427
0,2021-06-08 16:02:01.8660,00:37,60,2,2021-06-08 16:02:07.8580,1623160927.858489,-2.5855846405029297,1.4022767543792725,1.8561025857925415,0.06425479054450989,-0.42173779010772705,-0.6069945693016052
0,2021-06-08 16:02:01.8660,00:37,60,2,2021-06-08 16:02:07.8730,1623160927.873015,-2.7283992767333984,1.5099166631698608,1.9828276634216309,0.06893923878669739,-0.35330215096473694,-0.6058349013328552
0,2021-06-08 16:02:01.8660,00:37,60,2,2021-06-08 16:02:07.8890,1623160927.888758,-2.846256971359253,1.6006252765655518,2.0685126781463623,0.06939700245857239,-0.32960522174835205,-0.6104125380516052
0,2021-06-08 16:02:01.8660,00:37,60,2,2021-06-08 16:02:07.9030,1623160927.903178,-2.836474657058716,1.6485857963562012,2.1500391960144043,0.08236696571111679,-0.26701366901397705,-0.6599730849266052
0,2021-06-08 16:02:01.8660,00:37,60,2,2021-06-08 16:02:07.9190,1623160927.919393,-2.8743491172790527,1.7378666400909424,2.2318131923675537,0.07844546064734459,-0.20108044147491455,-0.6747588515281677
0,2021-06-08 16:02:01.8660,00:37,60,2,2021-06-08 16:02:07.9650,1623160927.965349,-2.878329277038574,1.8196965456008911,2.2990193367004395,0.10490420088171959,-0.08058178424835205,-0.716522216796875
0,2021-06-08 16:02:01.8660,00:37,60,2,2021-06-08 16:02:07.9650,1623160927.965403,-2.883512020111084,1.8990974426269531,2.3310470581054688,0.12280274368822575,-0.03884899616241455,-0.7282562255859375
0,2021-06-08 16:02:01.8660,00:37,60,2,2021-06-08 16:02:07.9650,1623160927.965421,-2.8988702297210693,1.92099130153656,2.3760693073272705,0.16191102284938097,0.04171741008758545,-0.7854461073875427
0,2021-06-08 16:02:01.8660,00:37,60,2,2021-06-08 16:02:07.9790,1623160927.978672,-2.9145007133483887,1.8894336223602295,2.4713070392608643,0.17878724075853825,0.06703174114227295,-0.805816650390625
0,2021-06-08 16:02:01.8660,00:37,60,2,2021-06-08 16:02:07.9930,1623160927.9930959,-2.920112133026123,1.8793556690216064,2.5435469150543213,0.1805267371237278,0.11929312348365784,-0.8238982558250427
0,2021-06-08 16:02:01.8660,00:37,60,2,2021-06-08 16:02:08.0110,1623160928.010583,-2.8055617809295654,2.0185506343841553,2.485531806945801,0.1731414906680584,0.15145863592624664,-0.8219757080078125
0,2021-06-08 16:02:01.8660,00:37,60,2,2021-06-08 16:02:08.0230,1623160928.02317,-2.556047201156616,2.2673590183258057,2.3777456283569336,0.1823425367474556,0.29019156098365784,-0.7985381484031677
0,2021-06-08 16:02:01.8660,00:37,60,2,2021-06-08 16:02:08.0390,1623160928.0386372,-2.1288938522338867,2.5359630584716797,2.2538342475891113,0.2144165113568306,0.37458792701363564,-0.7831115126609802
0,2021-06-08 16:02:01.8660,00:37,60,2,2021-06-08 16:02:08.0530,1623160928.053113,-1.6983271837234497,2.7312076091766357,2.114729642868042,0.3267059475183487,0.4807585794478655,-0.835174560546875
0,2021-06-08 16:02:01.8660,00:37,60,2,2021-06-08 16:02:08.0690,1623160928.0686312,-1.4017868041992188,2.8596553802490234,1.9655786752700806,0.3685608208179474,0.4969939333386719,-0.872650146484375
0,2021-06-08 16:02:01.8660,00:37,60,2,2021-06-08 16:02:08.0830,1623160928.083049,-1.1722424030303955,2.969797372817993,1.7674410343170166,0.4255676418542862,0.46957388147711754,-0.9840240478515625
0,2021-06-08 16:02:01.8660,00:37,60,2,2021-06-08 16:02:08.0990,1623160928.098588,-1.1077735424041748,3.056467056274414,1.703193187713623,0.4470062255859375,0.43948354572057724,-1.0188903212547302
0,2021-06-08 16:02:01.8660,00:37,60,2,2021-06-08 16:02:08.1130,1623160928.113078,-1.2193599939346313,3.099436044692993,1.621392846107483,0.4896240532398224,0.37646474689245224,-1.0184783935546875
0,2021-06-08 16:02:01.8660,00:37,60,2,2021-06-08 16:02:08.1290,1623160928.128766,-1.3943545818328857,3.0907349586486816,1.5136873722076416,0.5227508842945099,0.34248343482613564,-0.9978179931640625
0,2021-06-08 16:02:01.8660,00:37,60,2,2021-06-08 16:02:08.1430,1623160928.143161,-1.4924083948135376,3.119417667388916,1.3749998807907104,0.6025543510913849,0.34915151447057724,-1.0091552734375
0,2021-06-08 16:02:01.8660,00:37,60,2,2021-06-08 16:02:08.1590,1623160928.158761,-1.467997431755066,3.1438591480255127,1.2656842470169067,0.6252442002296448,0.36628715693950653,-0.99346923828125
0,2021-06-08 16:02:01.8660,00:37,60,2,2021-06-08 16:02:08.1730,1623160928.173377,-1.4524469375610352,3.145371198654175,1.1677364110946655,0.6628876328468323,0.33601370453834534,-1.0280303955078125
0,2021-06-08 16:02:01.8660,00:37,60,2,2021-06-08 16:02:08.1890,1623160928.1887488,-1.4912108182907104,3.1496379375457764,1.0807814598083496,0.6701202988624573,0.33068839460611343,-1.0382689833641052
0,2021-06-08 16:02:01.8660,00:37,60,2,2021-06-08 16:02:08.2030,1623160928.203284,-1.4527939558029175,3.122645854949951,1.0234694480895996,0.7019196152687073,0.32083120942115784,-1.0352325439453125
0,2021-06-08 16:02:01.8660,00:37,60,2,2021-06-08 16:02:08.2190,1623160928.218869,-1.3485503196716309,3.0299549102783203,1.0168293714523315,0.7246399521827698,0.3075255751609802,-1.0402984023094177
0,2021-06-08 16:02:01.8660,00:37,60,2,2021-06-08 16:02:08.2340,1623160928.2339349,-1.293541669845581,2.9277608394622803,1.0399563312530518,0.7786408066749573,0.29652395844459534,-1.0407257080078125
0,2021-06-08 16:02:01.8660,00:37,60,2,2021-06-08 16:02:08.2490,1623160928.249083,-1.4313323497772217,2.826937675476074,1.014631986618042,0.8021546006202698,0.26202385127544403,-1.038787841796875
0,2021-06-08 16:02:01.8660,00:37,60,2,2021-06-08 16:02:08.2640,1623160928.263668,-1.5966882705688477,2.702549457550049,0.9975093007087708,0.8406830430030823,0.2770385071635246,-0.9934844374656677
0,2021-06-08 16:02:01.8660,00:37,60,2,2021-06-08 16:02:08.2790,1623160928.279121,-1.5438215732574463,2.5167429447174072,0.9940409660339355,0.8806152939796448,0.29215995967388153,-0.9981536865234375
0,2021-06-08 16:02:01.8660,00:37,60,2,2021-06-08 16:02:08.2940,1623160928.293661,-1.3780725002288818,2.3410444259643555,0.9795385003089905,0.949783444404602,0.3768462613224983,-0.9622650146484375
0,2021-06-08 16:02:01.8660,00:37,60,2,2021-06-08 16:02:08.3090,1623160928.309125,-1.0559356212615967,2.129455327987671,0.9375737309455872,0.963485836982727,0.3925628140568733,-0.9436034560203552
0,2021-06-08 16:02:01.8660,00:37,60,2,2021-06-08 16:02:08.3240,1623160928.323664,-0.8244528770446777,1.9548850059509277,0.8835517764091492,0.961807370185852,0.36248771101236343,-0.9457396864891052
0,2021-06-08 16:02:01.8660,00:37,60,2,2021-06-08 16:02:08.3390,1623160928.339172,-0.7620543837547302,1.8079719543457031,0.8631487488746643,0.9436646103858948,0.3443297669291496,-0.9126738905906677
0,2021-06-08 16:02:01.8660,00:37,60,2,2021-06-08 16:02:08.3540,1623160928.353833,-0.8497119545936584,1.6495789289474487,0.839933454990387,0.947433590888977,0.29521171003580093,-0.8317718505859375
0,2021-06-08 16:02:01.8660,00:37,60,2,2021-06-08 16:02:08.3690,1623160928.369258,-1.0108921527862549,1.4382078647613525,0.8090450763702393,0.969802975654602,0.2841033339500427,-0.79486083984375
0,2021-06-08 16:02:01.8660,00:37,60,2,2021-06-08 16:02:08.3840,1623160928.384091,-1.170480728149414,1.1981436014175415,0.7754783034324646,1.0166321992874146,0.28244009613990784,-0.7522583305835724
0,2021-06-08 16:02:01.8660,00:37,60,2,2021-06-08 16:02:08.4000,1623160928.399736,-1.2765295505523682,0.9945390820503235,0.7102055549621582,1.0170746445655823,0.3001098036766052,-0.7357482314109802
0,2021-06-08 16:02:01.8660,00:37,60,2,2021-06-08 16:02:08.4140,1623160928.413847,-1.3740273714065552,0.7726298570632935,0.5931612253189087,1.0062866806983948,0.27676382660865784,-0.7384642958641052
0,2021-06-08 16:02:01.8660,00:37,60,2,2021-06-08 16:02:08.4290,1623160928.4294338,-1.4639800786972046,0.6098899245262146,0.4840523302555084,0.9876404404640198,0.26670829951763153,-0.7393951714038849
0,2021-06-08 16:02:01.8660,00:37,60,2,2021-06-08 16:02:08.4440,1623160928.443818,-1.5156086683273315,0.3992179334163666,0.375407338142395,0.9673463702201843,0.2324371188879013,-0.7346344292163849
0,2021-06-08 16:02:01.8660,00:37,60,2,2021-06-08 16:02:08.4600,1623160928.459815,-1.519260048866272,0.258009135723114,0.28266647458076477,0.9637451767921448,0.24070733040571213,-0.7107390761375427
0,2021-06-08 16:02:01.8660,00:37,60,2,2021-06-08 16:02:08.4740,1623160928.4741821,-1.395965576171875,0.14889754354953766,0.18216118216514587,0.9500733017921448,0.255493126809597,-0.6959533393383026
0,2021-06-08 16:02:01.8660,00:37,60,2,2021-06-08 16:02:08.4890,1623160928.489299,-1.205851435661316,0.08358032256364822,0.06189442798495293,0.949371337890625,0.24737541377544403,-0.6824492812156677
0,2021-06-08 16:02:01.8660,00:37,60,2,2021-06-08 16:02:08.5040,1623160928.503903,-1.0203561782836914,0.08030117303133011,-0.050949566066265106,0.9470672607421875,0.24751275777816772,-0.6890258491039276
0,2021-06-08 16:02:01.8660,00:37,60,2,2021-06-08 16:02:08.5190,1623160928.519175,-0.8671035170555115,0.033482540398836136,-0.1402677297592163,0.9524995684623718,0.24186702072620392,-0.6998596787452698
0,2021-06-08 16:02:01.8660,00:37,60,2,2021-06-08 16:02:08.5450,1623160928.54458,-0.6518409848213196,-0.009393020533025265,-0.2553916573524475,0.951797604560852,0.2055511176586151,-0.7192535400390625
0,2021-06-08 16:02:01.8660,00:37,60,2,2021-06-08 16:02:08.5490,1623160928.549199,-0.4179186522960663,-0.028211714699864388,-0.3226543068885803,0.9451600313186646,0.20468133687973022,-0.7147826850414276
0,2021-06-08 16:02:01.8660,00:37,60,2,2021-06-08 16:02:08.5640,1623160928.563971,-0.1785031259059906,-0.06861666589975357,-0.364711195230484,0.9190674424171448,0.2005767673254013,-0.698638916015625
0,2021-06-08 16:02:01.8660,00:37,60,2,2021-06-08 16:02:08.5790,1623160928.5792289,-0.016255095601081848,-0.09423281252384186,-0.35988476872444153,0.9028473496437073,0.186798095703125,-0.6652984619140625
0,2021-06-08 16:02:01.8660,00:37,60,2,2021-06-08 16:02:08.5940,1623160928.594411,0.06350327283143997,-0.1305444836616516,-0.3095478415489197,0.8839570879936218,0.14334100484848022,-0.5966949760913849
0,2021-06-08 16:02:01.8660,00:37,60,2,2021-06-08 16:02:08.6090,1623160928.609422,0.08098966628313065,-0.18032774329185486,-0.23653407394886017,0.8786927461624146,0.1227416843175888,-0.568939208984375
0,2021-06-08 16:02:01.8660,00:37,60,2,2021-06-08 16:02:08.6240,1623160928.624037,0.10550406575202942,-0.20672473311424255,-0.17566007375717163,0.868148922920227,0.12011712789535522,-0.5266266167163849
0,2021-06-08 16:02:01.8660,00:37,60,2,2021-06-08 16:02:08.6390,1623160928.6394482,0.12336112558841705,-0.21985384821891785,-0.11117535829544067,0.8690339922904968,0.1392059028148651,-0.5040588676929474
0,2021-06-08 16:02:01.8660,00:37,60,2,2021-06-08 16:02:08.6540,1623160928.654149,0.13493138551712036,-0.2464308738708496,-0.05974652245640755,0.873916745185852,0.1484222114086151,-0.4729308784008026
0,2021-06-08 16:02:01.8660,00:37,60,2,2021-06-08 16:02:08.6690,1623160928.669317,0.13702410459518433,-0.27560552954673767,-0.023122994229197502,0.8747559189796448,0.14927665889263153,-0.4595947563648224
0,2021-06-08 16:02:01.8660,00:37,60,2,2021-06-08 16:02:08.6840,1623160928.683964,0.15973393619060516,-0.26762163639068604,-0.0052121710032224655,0.883926510810852,0.15850824117660522,-0.4367217719554901
0,2021-06-08 16:02:01.8660,00:37,60,2,2021-06-08 16:02:08.6990,1623160928.699358,0.1921323537826538,-0.24828042089939117,0.007311077322810888,0.8823243379592896,0.17274470627307892,-0.42388916015625
0,2021-06-08 16:02:01.8660,00:37,60,2,2021-06-08 16:02:08.7140,1623160928.714254,0.20221088826656342,-0.21759869158267975,0.021168038249015808,0.8851929306983948,0.17533867061138153,-0.39825439453125
0,2021-06-08 16:02:01.8660,00:37,60,2,2021-06-08 16:02:08.7300,1623160928.729848,0.17463794350624084,-0.19546249508857727,0.03020574152469635,0.8817749619483948,0.17849726974964142,-0.3880920112133026
0,2021-06-08 16:02:01.8660,00:37,60,2,2021-06-08 16:02:08.7440,1623160928.7444,0.14805586636066437,-0.1745162010192871,0.03435681015253067,0.893035888671875,0.1769866645336151,-0.3709868788719177
0,2021-06-08 16:02:01.8660,00:37,60,2,2021-06-08 16:02:08.7600,1623160928.7596369,0.12637197971343994,-0.16362041234970093,0.03806339576840401,0.894394040107727,0.18771356344223022,-0.3656006157398224
0,2021-06-08 16:02:01.8660,00:37,60,2,2021-06-08 16:02:08.7750,1623160928.775161,0.13914746046066284,-0.13699012994766235,0.033956803381443024,0.8935852646827698,0.19343560934066772,-0.3604431450366974
0,2021-06-08 16:02:01.8660,00:37,60,2,2021-06-08 16:02:08.7900,1623160928.7897959,0.12497763335704803,-0.10186915844678879,0.027543645352125168,0.8893433213233948,0.20341485738754272,-0.3546599745750427
0,2021-06-08 16:02:01.8660,00:37,60,2,2021-06-08 16:02:08.8050,1623160928.804589,0.09605411440134048,-0.07966345548629761,0.019586918875575066,0.8993225693702698,0.19546502828598022,-0.34489431977272034
0,2021-06-08 16:02:01.8660,00:37,60,2,2021-06-08 16:02:08.8200,1623160928.8197699,0.07188256829977036,-0.06048629805445671,0.019158681854605675,0.8993377685546875,0.19718927145004272,-0.3382415175437927
0,2021-06-08 16:02:01.8660,00:37,60,2,2021-06-08 16:02:08.8340,1623160928.834482,0.05598847568035126,-0.0297883078455925,0.010853348299860954,0.8955841660499573,0.19062800705432892,-0.3292083740234375
0,2021-06-08 16:02:01.8660,00:37,60,2,2021-06-08 16:02:08.8500,1623160928.850445,0.03346071392297745,-0.0072792693972587585,0.005242866929620504,0.8909302353858948,0.19439689815044403,-0.3305511176586151
0,2021-06-08 16:02:01.8660,00:37,60,2,2021-06-08 16:02:08.8650,1623160928.8646278,-0.006625451613217592,0.013330933637917042,-0.00599221047013998,0.8990631699562073,0.1847839057445526,-0.3346404731273651
0,2021-06-08 16:02:01.8660,00:37,60,2,2021-06-08 16:02:08.8820,1623160928.882374,-0.046571455895900726,0.014443336054682732,-0.0034358424600213766,0.9011993408203125,0.1871337592601776,-0.33804312348365784
0,2021-06-08 16:02:01.8660,00:37,60,2,2021-06-08 16:02:08.8940,1623160928.894487,-0.09011299163103104,0.03923044353723526,-0.013972106389701366,0.8980714082717896,0.1780395358800888,-0.35150146484375
0,2021-06-08 16:02:01.8660,00:37,60,2,2021-06-08 16:02:08.9340,1623160928.934495,-0.11157077550888062,0.05705071985721588,-0.01393535453826189,0.8938446044921875,0.17955009639263153,-0.3608398139476776
0,2021-06-08 16:02:01.8660,00:37,60,2,2021-06-08 16:02:08.9350,1623160928.934575,-0.12810420989990234,0.08236166089773178,-0.022665195167064667,0.891281247138977,0.1753081977367401,-0.3788299560546875
0,2021-06-08 16:02:01.8660,00:37,60,2,2021-06-08 16:02:08.9400,1623160928.939729,-0.1268758624792099,0.11117413640022278,-0.013590475544333458,0.889389157295227,0.1808623969554901,-0.3857879638671875
0,2021-06-08 16:02:01.8660,00:37,60,2,2021-06-08 16:02:08.9540,1623160928.954399,-0.11413412541151047,0.13105250895023346,-0.006746151950210333,0.8873139023780823,0.17782588303089142,-0.4029083251953125
0,2021-06-08 16:02:01.8660,00:37,60,2,2021-06-08 16:02:08.9700,1623160928.969974,-0.0880042240023613,0.1625198870897293,-0.008380533196032047,0.8850403428077698,0.18074026703834534,-0.4087524116039276
0,2021-06-08 16:02:01.8660,00:37,60,2,2021-06-08 16:02:08.9850,1623160928.9847531,-0.05143183097243309,0.17310968041419983,0.0047304751351475716,0.8880311250686646,0.1877898871898651,-0.42584228515625
0,2021-06-08 16:02:01.8660,00:37,60,2,2021-06-08 16:02:09.0000,1623160928.9998941,-0.023236731067299843,0.16810134053230286,0.010848822072148323,0.8908540606498718,0.18066400289535522,-0.4320831298828125
0,2021-06-08 16:02:01.8660,00:37,60,2,2021-06-08 16:02:09.0140,1623160929.014278,-0.019577227532863617,0.165925532579422,0.029098665341734886,0.8854065537452698,0.17253108322620392,-0.4466705620288849
0,2021-06-08 16:02:01.8660,00:37,60,2,2021-06-08 16:02:09.0300,1623160929.029676,-0.03831033036112785,0.15872514247894287,0.045660600066185,0.882095456123352,0.16346734762191772,-0.4477386474609375
0,2021-06-08 16:02:01.8660,00:37,60,2,2021-06-08 16:02:09.0440,1623160929.044466,-0.0350428968667984,0.15298256278038025,0.053354471921920776,0.8834075927734375,0.15957635641098022,-0.4658050537109375
0,2021-06-08 16:02:01.8660,00:37,60,2,2021-06-08 16:02:09.0600,1623160929.059839,0.015488079749047756,0.11230571568012238,0.07268662750720978,0.8856353759765625,0.15884390473365784,-0.4889373481273651
0,2021-06-08 16:02:01.8660,00:37,60,2,2021-06-08 16:02:09.0740,1623160929.074419,0.05472384765744209,0.07855121046304703,0.06783460825681686,0.8766632676124573,0.16050711274147034,-0.5376281440258026
0,2021-06-08 16:02:01.8660,00:37,60,2,2021-06-08 16:02:09.0900,1623160929.0902739,0.07097027450799942,0.0048663429915905,0.06018254533410072,0.8786317110061646,0.16688531637191772,-0.5669250190258026
0,2021-06-08 16:02:01.8660,00:37,60,2,2021-06-08 16:02:09.1050,1623160929.10462,0.12837684154510498,-0.09298059344291687,0.05642536282539368,0.881851315498352,0.16650386154651642,-0.6163330376148224
0,2021-06-08 16:02:01.8660,00:37,60,2,2021-06-08 16:02:09.1200,1623160929.12005,0.1884639859199524,-0.21034583449363708,0.049903545528650284,0.884842038154602,0.1576537787914276,-0.651580810546875
0,2021-06-08 16:02:01.8660,00:37,60,2,2021-06-08 16:02:09.1350,1623160929.13462,0.3598690629005432,-0.33259689807891846,0.01972593367099762,0.8917083740234375,0.1678008884191513,-0.7090758383274078
0,2021-06-08 16:02:01.8660,00:37,60,2,2021-06-08 16:02:09.1500,1623160929.1501741,0.7863752245903015,-0.45447325706481934,-0.04854686185717583,0.8991547226905823,0.2025909125804901,-0.73040771484375
0,2021-06-08 16:02:01.8660,00:37,60,2,2021-06-08 16:02:09.1650,1623160929.1646628,1.405967354774475,-0.5367990136146545,-0.11749104410409927,0.9171448349952698,0.2928466498851776,-0.7707672119140625
0,2021-06-08 16:02:01.8660,00:37,60,2,2021-06-08 16:02:09.1800,1623160929.180486,2.018681287765503,-0.6125332117080688,-0.15901558101177216,0.910415768623352,0.3256225138902664,-0.7796325087547302
0,2021-06-08 16:02:01.8660,00:37,60,2,2021-06-08 16:02:09.1950,1623160929.194819,2.542497396469116,-0.7305594682693481,-0.240692600607872,0.9100952744483948,0.3043975383043289,-0.7788848578929901
0,2021-06-08 16:02:01.8660,00:37,60,2,2021-06-08 16:02:09.2100,1623160929.210326,2.968324899673462,-0.8330751657485962,-0.2919294238090515,0.914031982421875,0.30661002546548843,-0.8212279677391052
0,2021-06-08 16:02:01.8660,00:37,60,2,2021-06-08 16:02:09.2250,1623160929.224763,3.114051580429077,-0.9432871341705322,-0.2811604142189026,0.9092102646827698,0.25381462275981903,-0.9299316108226776
0,2021-06-08 16:02:01.8660,00:37,60,2,2021-06-08 16:02:09.2400,1623160929.2404451,2.9426517486572266,-1.1489559412002563,-0.25640764832496643,0.900467038154602,0.14395134896039963,-0.970916748046875
0,2021-06-08 16:02:01.8660,00:37,60,2,2021-06-08 16:02:09.2550,1623160929.254767,2.259509325027466,-1.39397132396698,-0.2552129626274109,0.9015198349952698,-0.006698690354824066,-1.0551605224609375
0,2021-06-08 16:02:01.8660,00:37,60,2,2021-06-08 16:02:09.2700,1623160929.270204,1.5556044578552246,-1.6848361492156982,-0.27846553921699524,0.9205017685890198,-0.04881294444203377,-1.088714599609375
0,2021-06-08 16:02:01.8660,00:37,60,2,2021-06-08 16:02:09.2850,1623160929.2846808,1.0729037523269653,-1.9476292133331299,-0.318115234375,0.9345093369483948,-0.008010953664779663,-1.1731414794921875
0,2021-06-08 16:02:01.8660,00:37,60,2,2021-06-08 16:02:09.3000,1623160929.3003469,0.9209994673728943,-2.1632752418518066,-0.3868420720100403,0.9342804551124573,0.04856863245368004,-1.1729735732078552
0,2021-06-08 16:02:01.8660,00:37,60,2,2021-06-08 16:02:09.3150,1623160929.314867,1.0367509126663208,-2.307162046432495,-0.4930145740509033,0.928421139717102,0.17625419422984123,-1.1833953857421875
0,2021-06-08 16:02:01.8660,00:37,60,2,2021-06-08 16:02:09.3300,1623160929.330346,1.2093297243118286,-2.461223840713501,-0.6312840580940247,0.919937252998352,0.24827567860484123,-1.1885070204734802
0,2021-06-08 16:02:01.8660,00:37,60,2,2021-06-08 16:02:09.3450,1623160929.3448648,1.5778297185897827,-2.6305549144744873,-0.7336516976356506,0.9018707871437073,0.3154601398855448,-1.1895904541015625
0,2021-06-08 16:02:01.8660,00:37,60,2,2021-06-08 16:02:09.3600,1623160929.360332,1.8439580202102661,-2.7317376136779785,-0.8137345910072327,0.8864288926124573,0.3357390705496073,-1.1861114501953125
0,2021-06-08 16:02:01.8660,00:37,60,2,2021-06-08 16:02:09.3750,1623160929.3749309,2.0065972805023193,-2.855130434036255,-0.887994647026062,0.8710175156593323,0.37055959133431315,-1.161651611328125
0,2021-06-08 16:02:01.8660,00:37,60,2,2021-06-08 16:02:09.3900,1623160929.390362,2.0464470386505127,-2.990996837615967,-0.9293740391731262,0.8727112412452698,0.3549040602520108,-1.15997314453125
0,2021-06-08 16:02:01.8660,00:37,60,2,2021-06-08 16:02:09.4050,1623160929.405107,2.0367133617401123,-3.0716021060943604,-1.0189043283462524,0.8622588515281677,0.3226469960063696,-1.1108397841453552
0,2021-06-08 16:02:01.8660,00:37,60,2,2021-06-08 16:02:09.4210,1623160929.420553,2.1289687156677246,-3.115981101989746,-1.131330966949463,0.8536224961280823,0.31018058583140373,-1.08380126953125
0,2021-06-08 16:02:01.8660,00:37,60,2,2021-06-08 16:02:09.4350,1623160929.435213,2.2569241523742676,-3.0959064960479736,-1.2819619178771973,0.8130798935890198,0.35102834925055504,-1.0473784804344177
0,2021-06-08 16:02:01.8660,00:37,60,2,2021-06-08 16:02:09.4510,1623160929.450515,2.409923791885376,-3.079859972000122,-1.4655919075012207,0.8020630180835724,0.38037100434303284,-1.0277862548828125
0,2021-06-08 16:02:01.8660,00:37,60,2,2021-06-08 16:02:09.4650,1623160929.465076,2.6074588298797607,-3.0561630725860596,-1.6252375841140747,0.7906036674976349,0.40687549114227295,-0.9935760498046875
0,2021-06-08 16:02:01.8660,00:37,60,2,2021-06-08 16:02:09.4810,1623160929.480581,2.8070552349090576,-2.9943478107452393,-1.7400031089782715,0.7652893662452698,0.39460740983486176,-0.9500579833984375
0,2021-06-08 16:02:01.8660,00:37,60,2,2021-06-08 16:02:09.4950,1623160929.4950829,2.862117052078247,-2.911721706390381,-1.8728684186935425,0.7016907334327698,0.34130848944187164,-0.8945159912109375
0,2021-06-08 16:02:01.8660,00:37,60,2,2021-06-08 16:02:09.5110,1623160929.5105429,2.9296274185180664,-2.850202798843384,-1.9726452827453613,0.6780853271484375,0.31332385540008545,-0.8900299072265625
0,2021-06-08 16:02:01.8660,00:37,60,2,2021-06-08 16:02:09.5250,1623160929.525157,2.912858009338379,-2.7523632049560547,-2.0217747688293457,0.6313171684741974,0.23913563787937164,-0.8694304823875427
0,2021-06-08 16:02:01.8660,00:37,60,2,2021-06-08 16:02:09.5410,1623160929.540601,2.886651039123535,-2.662416696548462,-2.042398452758789,0.6123504638671875,0.18902575969696045,-0.8286132216453552
0,2021-06-08 16:02:01.8660,00:37,60,2,2021-06-08 16:02:09.5550,1623160929.555166,2.7883927822113037,-2.5431065559387207,-2.055265188217163,0.5222015976905823,0.08998095989227295,-0.7841491103172302
0,2021-06-08 16:02:01.8660,00:37,60,2,2021-06-08 16:02:09.5710,1623160929.5709949,2.7079355716705322,-2.416248321533203,-2.054821491241455,0.4902801811695099,0.03614795207977295,-0.7716674208641052
0,2021-06-08 16:02:01.8660,00:37,60,2,2021-06-08 16:02:09.5850,1623160929.585186,2.6267404556274414,-2.3087098598480225,-2.095684289932251,0.4503937065601349,0.02807605266571045,-0.7609557509422302
0,2021-06-08 16:02:01.8660,00:37,60,2,2021-06-08 16:02:09.6010,1623160929.6006598,2.6963818073272705,-2.205169677734375,-2.0940165519714355,0.4261780232191086,0.04470813274383545,-0.7439574599266052
0,2021-06-08 16:02:01.8660,00:37,60,2,2021-06-08 16:02:09.6150,1623160929.615238,2.722165107727051,-2.099152088165283,-2.041125535964966,0.3694916218519211,0.02972400188446045,-0.6918639540672302
0,2021-06-08 16:02:01.8660,00:37,60,2,2021-06-08 16:02:09.6310,1623160929.630692,2.6098716259002686,-2.0372462272644043,-2.00451397895813,0.3516235500574112,-0.020217984914779663,-0.696060061454773
0,2021-06-08 16:02:01.8660,00:37,60,2,2021-06-08 16:02:09.6450,1623160929.645197,2.5160036087036133,-1.9839738607406616,-1.9293159246444702,0.3217621296644211,-0.10749828815460205,-0.6764678359031677
0,2021-06-08 16:02:01.8660,00:37,60,2,2021-06-08 16:02:09.6610,1623160929.661058,2.3969004154205322,-1.918352723121643,-1.8320181369781494,0.3023682236671448,-0.15342724323272705,-0.6603087782859802
0,2021-06-08 16:02:01.8660,00:37,60,2,2021-06-08 16:02:09.6760,1623160929.6755428,2.226032257080078,-1.8536087274551392,-1.7918353080749512,0.2650909870862961,-0.19618237018585205,-0.6659544706344604
0,2021-06-08 16:02:01.8660,00:37,60,2,2021-06-08 16:02:09.6910,1623160929.690788,2.1296112537384033,-1.8136143684387207,-1.7327980995178223,0.2639923617243767,-0.20660418272018433,-0.668868899345398
0,2021-06-08 16:02:01.8660,00:37,60,2,2021-06-08 16:02:09.7050,1623160929.705353,2.036813497543335,-1.8031196594238281,-1.6687796115875244,0.2733002305030823,-0.23448193073272705,-0.6360778212547302
0,2021-06-08 16:02:01.8660,00:37,60,2,2021-06-08 16:02:09.7210,1623160929.720914,1.9304959774017334,-1.8011788129806519,-1.5532687902450562,0.2704925835132599,-0.27813732624053955,-0.6318053007125854
0,2021-06-08 16:02:01.8660,00:37,60,2,2021-06-08 16:02:09.7350,1623160929.7353501,1.694128155708313,-1.7836130857467651,-1.473686695098877,0.2610626667737961,-0.3659517168998718,-0.6348723769187927
0,2021-06-08 16:02:01.8660,00:37,60,2,2021-06-08 16:02:09.7510,1623160929.7509809,1.565575122833252,-1.7667059898376465,-1.4336411952972412,0.2666016221046448,-0.36656200885772705,-0.6171568632125854
0,2021-06-08 16:02:01.8660,00:37,60,2,2021-06-08 16:02:09.7660,1623160929.765599,1.5499919652938843,-1.7953797578811646,-1.362313985824585,0.2905274033546448,-0.3896028399467468,-0.6060180068016052
0,2021-06-08 16:02:01.8660,00:37,60,2,2021-06-08 16:02:09.8140,1623160929.814126,1.4508119821548462,-1.8074352741241455,-1.2432633638381958,0.2925720773637295,-0.42713940143585205,-0.6091613173484802
0,2021-06-08 16:02:01.8660,00:37,60,2,2021-06-08 16:02:09.8140,1623160929.814224,1.2341688871383667,-1.8192334175109863,-1.134465217590332,0.2671662010252476,-0.514206051826477,-0.6038206815719604
0,2021-06-08 16:02:01.8660,00:37,60,2,2021-06-08 16:02:09.8140,1623160929.814252,1.1180256605148315,-1.865272045135498,-1.0358963012695312,0.2583618797361851,-0.5550538301467896,-0.600479006767273
0,2021-06-08 16:02:01.8660,00:37,60,2,2021-06-08 16:02:09.8360,1623160929.835836,1.0025537014007568,-1.893742561340332,-0.9584384560585022,0.23033149167895317,-0.561050534248352,-0.6327818036079407
0,2021-06-08 16:02:01.8660,00:37,60,2,2021-06-08 16:02:09.8410,1623160929.841103,0.9100652933120728,-1.9149857759475708,-0.8898457884788513,0.22094734013080597,-0.5686646699905396,-0.6387022733688354
0,2021-06-08 16:02:01.8660,00:37,60,2,2021-06-08 16:02:09.8560,1623160929.8555288,0.852903425693512,-1.9142299890518188,-0.8213136792182922,0.18612677417695522,-0.591446042060852,-0.6215513944625854
0,2021-06-08 16:02:01.8660,00:37,60,2,2021-06-08 16:02:09.8710,1623160929.8709779,7.888837814331055,-6.963434219360352,-1.2316555976867676,0.1620026333257556,-0.6216279864311218,-0.6116942167282104
0,2021-06-08 16:02:01.8660,00:37,60,2,2021-06-08 16:02:09.8880,1623160929.8877668,10.776803970336914,0.446899950504303,-1.453526258468628,4.279098670464009,4.541686773300171,4.074935972690582
0,2021-06-08 16:02:01.8660,00:37,60,2,2021-06-08 16:02:09.9010,1623160929.90079,-1.969128966331482,-0.07862748950719833,-1.9267984628677368,-1.1888121515512466,-4.838684260845184,0.37564098834991455
0,2021-06-08 16:02:01.8660,00:37,60,2,2021-06-08 16:02:09.9250,1623160929.925097,1.0784815549850464,-0.6066558957099915,0.3614973723888397,-1.6672057285904884,-1.0327454805374146,-0.3323820233345032
0,2021-06-08 16:02:01.8660,00:37,60,2,2021-06-08 16:02:09.9310,1623160929.9311562,0.16126224398612976,0.7977584004402161,0.5146384239196777,0.30235297605395317,-1.9660035967826843,-0.8498839139938354
0,2021-06-08 16:02:01.8660,00:37,60,2,2021-06-08 16:02:09.9450,1623160929.945403,-1.4376022815704346,1.0811519622802734,0.6741431355476379,-0.21696463599801064,-0.9350587725639343,-1.262374758720398
0,2021-06-08 16:02:01.8660,00:37,60,2,2021-06-08 16:02:09.9610,1623160929.961148,-1.2340173721313477,1.0396928787231445,0.151668518781662,0.05336005613207817,-0.9616395235061646,-1.0652158856391907
0,2021-06-08 16:02:01.8660,00:37,60,2,2021-06-08 16:02:09.9760,1623160929.975532,-0.5563202500343323,1.541964054107666,0.3751569986343384,-0.14094536751508713,-0.9854431748390198,-0.684219241142273
0,2021-06-08 16:02:01.8660,00:37,60,2,2021-06-08 16:02:09.9910,1623160929.9908528,-1.3176836967468262,2.1200814247131348,1.1041193008422852,-0.05645744875073433,-0.8700256943702698,-0.5156858563423157
0,2021-06-08 16:02:01.8660,00:37,60,2,2021-06-08 16:02:10.0050,1623160930.0053968,-4.767221927642822,-0.38354983925819397,2.5057082176208496,0.6036529876291752,-0.7577821016311646,0.30525219440460205
0,2021-06-08 16:02:01.8660,00:37,60,2,2021-06-08 16:02:10.0210,1623160930.0211182,-5.862753391265869,-1.415494441986084,-1.6322845220565796,0.9325409457087517,-1.2717591524124146,-0.18919360637664795
0,2021-06-08 16:02:01.8660,00:37,60,2,2021-06-08 16:02:10.0360,1623160930.035569,-3.0662035942077637,-1.004246711730957,0.3620374798774719,0.3940430283546448,0.15721118450164795,-0.2781371474266052
0,2021-06-08 16:02:01.8660,00:37,60,2,2021-06-08 16:02:10.0510,1623160930.051025,-0.4517110586166382,0.20953533053398132,0.5289907455444336,0.009841986000537872,0.07891833782196045,-0.5635374784469604
0,2021-06-08 16:02:01.8660,00:37,60,2,2021-06-08 16:02:10.0660,1623160930.065693,0.17224976420402527,0.5840471386909485,0.314586877822876,-0.05514519847929478,-0.4649963974952698,-0.602554202079773
0,2021-06-08 16:02:01.8660,00:37,60,2,2021-06-08 16:02:10.0810,1623160930.081294,-0.42065462470054626,0.3526128828525543,0.616215705871582,0.1346131032332778,-0.671768307685852,-0.5698394179344177
0,2021-06-08 16:02:01.8660,00:37,60,2,2021-06-08 16:02:10.0960,1623160930.095704,-1.3645700216293335,0.2339027225971222,0.967319667339325,0.1770630544051528,-0.8504640460014343,-0.6073912382125854
0,2021-06-08 16:02:01.8660,00:37,60,2,2021-06-08 16:02:10.1110,1623160930.111135,-1.9826314449310303,0.34279006719589233,1.1837737560272217,0.09718328766757622,-0.8044129610061646,-0.6441649794578552
0,2021-06-08 16:02:01.8660,00:37,60,2,2021-06-08 16:02:10.1260,1623160930.125833,-2.1480493545532227,0.39746129512786865,1.3753801584243774,0.060455376747995615,-0.6377260088920593,-0.6438292860984802
0,2021-06-08 16:02:01.8660,00:37,60,2,2021-06-08 16:02:10.1410,1623160930.141193,-2.1654551029205322,0.5055334568023682,1.4762228727340698,0.09561163187026978,-0.5668030977249146,-0.6126403212547302
0,2021-06-08 16:02:01.8660,00:37,60,2,2021-06-08 16:02:10.1560,1623160930.1557121,-2.14523983001709,0.6504549384117126,1.5539053678512573,0.11874394491314888,-0.4573213458061218,-0.5792235732078552
0,2021-06-08 16:02:01.8660,00:37,60,2,2021-06-08 16:02:10.1710,1623160930.171214,-2.1420936584472656,0.8282654285430908,1.6540714502334595,0.11505131982266903,-0.44602981209754944,-0.56793212890625
0,2021-06-08 16:02:01.8660,00:37,60,2,2021-06-08 16:02:10.1860,1623160930.185746,-2.152604818344116,0.9641894102096558,1.725839614868164,0.11170964874327183,-0.44526684284210205,-0.5976561903953552
0,2021-06-08 16:02:01.8660,00:37,60,2,2021-06-08 16:02:10.2020,1623160930.2015681,-2.290363311767578,1.0806597471237183,1.8072696924209595,0.11453251540660858,-0.43270885944366455,-0.6034850478172302
0,2021-06-08 16:02:01.8660,00:37,60,2,2021-06-08 16:02:10.2160,1623160930.215945,-2.434077262878418,1.1919975280761719,1.8727864027023315,0.10787967592477798,-0.37660232186317444,-0.6575011610984802
0,2021-06-08 16:02:01.8660,00:37,60,2,2021-06-08 16:02:10.2370,1623160930.23665,-2.5349819660186768,1.2815779447555542,1.9542570114135742,0.10568241495639086,-0.34481823444366455,-0.6836852431297302
0,2021-06-08 16:02:01.8660,00:37,60,2,2021-06-08 16:02:10.2460,1623160930.246074,-2.58685040473938,1.388481855392456,2.026132345199585,0.1255646076751873,-0.24148571491241455,-0.6922606825828552
0,2021-06-08 16:02:01.8660,00:37,60,2,2021-06-08 16:02:10.2620,1623160930.261777,-2.559145927429199,1.4476977586746216,2.062161922454834,0.1373901730403304,-0.19914260506629944,-0.7222899794578552
0,2021-06-08 16:02:01.8660,00:37,60,2,2021-06-08 16:02:10.2760,1623160930.2760072,-2.63905930519104,1.4476737976074219,2.121774435043335,0.1500702239573002,-0.14109817147254944,-0.7839812636375427
0,2021-06-08 16:02:01.8660,00:37,60,2,2021-06-08 16:02:10.3270,1623160930.3268108,-2.7725486755371094,1.4594446420669556,2.2125167846679688,0.14503483101725578,-0.11004649102687836,-0.8051909804344177
0,2021-06-08 16:02:01.8660,00:37,60,2,2021-06-08 16:02:10.3270,1623160930.326865,-2.908435821533203,1.466267704963684,2.303934335708618,0.13493350893259048,-0.04283152520656586,-0.8169097304344177
0,2021-06-08 16:02:01.8660,00:37,60,2,2021-06-08 16:02:10.3270,1623160930.3268871,-2.7963674068450928,1.5273514986038208,2.3367648124694824,0.1449127495288849,-0.00863659381866455,-0.8018035292625427
0,2021-06-08 16:02:01.8660,00:37,60,2,2021-06-08 16:02:10.3380,1623160930.338224,-2.562682867050171,1.541515827178955,2.33294939994812,0.18742374330759048,0.07980334758758545,-0.802764892578125
0,2021-06-08 16:02:01.8660,00:37,60,2,2021-06-08 16:02:10.3510,1623160930.351371,-2.2445263862609863,1.5331058502197266,2.290586471557617,0.21209720522165298,0.14984120428562164,-0.8249205946922302
0,2021-06-08 16:02:01.8660,00:37,60,2,2021-06-08 16:02:10.3660,1623160930.366039,-1.9211931228637695,1.5938072204589844,2.2879021167755127,0.2229004204273224,0.24708547070622444,-0.880645751953125
0,2021-06-08 16:02:01.8660,00:37,60,2,2021-06-08 16:02:10.3810,1623160930.381419,-1.7052950859069824,1.6843621730804443,2.2736141681671143,0.2107391655445099,0.2612151224166155,-0.9100341796875
0,2021-06-08 16:02:01.8660,00:37,60,2,2021-06-08 16:02:10.3970,1623160930.3968701,-1.6669607162475586,1.7689324617385864,2.294912576675415,0.2142944633960724,0.20733632298652083,-0.9268035888671875
0,2021-06-08 16:02:01.8660,00:37,60,2,2021-06-08 16:02:10.4110,1623160930.4113941,-1.6711934804916382,1.7835500240325928,2.2688469886779785,0.2343597710132599,0.20547476038336754,-0.9544830322265625
0,2021-06-08 16:02:01.8660,00:37,60,2,2021-06-08 16:02:10.4270,1623160930.4265718,-1.6711419820785522,1.8137643337249756,2.2641279697418213,0.2853851616382599,0.23403920605778694,-0.9555816650390625
0,2021-06-08 16:02:01.8660,00:37,60,2,2021-06-08 16:02:10.4410,1623160930.441396,-1.6725937128067017,1.912358283996582,2.217451810836792,0.3034820854663849,0.24592580646276474,-0.96337890625
0,2021-06-08 16:02:01.8660,00:37,60,2,2021-06-08 16:02:10.4560,1623160930.456011,-1.6640584468841553,2.0035924911499023,2.179326057434082,0.3317261040210724,0.24620047956705093,-0.951873779296875
0,2021-06-08 16:02:01.8660,00:37,60,2,2021-06-08 16:02:10.4720,1623160930.471592,-1.7514406442642212,2.1292967796325684,2.1273508071899414,0.3470916748046875,0.25787345319986343,-0.9535369277000427
0,2021-06-08 16:02:01.8660,00:37,60,2,2021-06-08 16:02:10.4860,1623160930.486031,-1.7094279527664185,2.1664586067199707,2.044036388397217,0.4086456596851349,0.30125418305397034,-0.9925384521484375
0,2021-06-08 16:02:01.8660,00:37,60,2,2021-06-08 16:02:10.5020,1623160930.501579,-1.6883389949798584,2.159615993499756,1.890834927558899,0.4492950737476349,0.35150139033794403,-1.0356903076171875
0,2021-06-08 16:02:01.8660,00:37,60,2,2021-06-08 16:02:10.5160,1623160930.5160089,-1.5604634284973145,2.062246084213257,1.8116987943649292,0.5465851128101349,0.41481008380651474,-1.1033477187156677
0,2021-06-08 16:02:01.8660,00:37,60,2,2021-06-08 16:02:10.5320,1623160930.531571,-1.5531631708145142,1.9980756044387817,1.7666873931884766,0.5657806694507599,0.4270934611558914,-1.08770751953125
0,2021-06-08 16:02:01.8660,00:37,60,2,2021-06-08 16:02:10.5460,1623160930.546118,-1.5545802116394043,1.9944396018981934,1.7225979566574097,0.5480347275733948,0.3763579726219177,-1.044036865234375
0,2021-06-08 16:02:01.8660,00:37,60,2,2021-06-08 16:02:10.5620,1623160930.561634,-1.619608759880066,2.0234670639038086,1.6273577213287354,0.5448760986328125,0.3629760146141052,-1.021148681640625
0,2021-06-08 16:02:01.8660,00:37,60,2,2021-06-08 16:02:10.5760,1623160930.576222,-1.585357904434204,2.0180044174194336,1.5346629619598389,0.5956879258155823,0.39082328975200653,-0.9568634033203125
0,2021-06-08 16:02:01.8660,00:37,60,2,2021-06-08 16:02:10.5920,1623160930.591703,-1.468423843383789,1.985408902168274,1.4121530055999756,0.6290131211280823,0.40576164424419403,-0.9442291855812073
0,2021-06-08 16:02:01.8660,00:37,60,2,2021-06-08 16:02:10.6060,1623160930.606226,-1.3223092555999756,1.9190119504928589,1.2768255472183228,0.6636963486671448,0.4309234023094177,-0.9738005995750427
