SessionID,SessionDate,SessionDuration,SessionFrequency,RecordID,WatchTimestamp,WatchtImeIntervalSince1970,WatchGyroX,WatchGyroY,WatchGyroZ,WatchAccX,WatchAccY,WatchAccZ
1,2021-06-08 16:06:42.2090,00:35,60,3,2021-06-08 16:06:41.6830,1623161201.6828198,-0.36813727021217346,-0.028924111276865005,0.09602869302034378,0.336151123046875,-0.5526275634765625,-0.7158660888671875
1,2021-06-08 16:06:42.2090,00:35,60,3,2021-06-08 16:06:41.6830,1623161201.6828861,-0.48847725987434387,-0.0416572168469429,0.1180541068315506,0.3568267971277237,-0.540069580078125,-0.7024383544921875
1,2021-06-08 16:06:42.2090,00:35,60,3,2021-06-08 16:06:41.6960,1623161201.696233,-0.589970588684082,-0.05084805190563202,0.13403600454330444,0.3873291015625,-0.5084685683250427,-0.6618193984031677
1,2021-06-08 16:06:42.2090,00:35,60,3,2021-06-08 16:06:41.6960,1623161201.696274,-0.7266045212745667,-0.05176950618624687,0.1511199176311493,0.3972931057214737,-0.498870849609375,-0.6450653076171875
1,2021-06-08 16:06:42.2090,00:35,60,3,2021-06-08 16:06:41.7180,1623161201.7175732,-0.8912732601165771,-0.05117242410778999,0.16680166125297546,0.4097747802734375,-0.4845580458641052,-0.613861083984375
1,2021-06-08 16:06:42.2090,00:35,60,3,2021-06-08 16:06:41.7270,1623161201.727133,-1.0643072128295898,-0.029622923582792282,0.1881607472896576,0.4081421047449112,-0.478546142578125,-0.5999298095703125
1,2021-06-08 16:06:42.2090,00:35,60,3,2021-06-08 16:06:41.7400,1623161201.740169,-1.178001046180725,-0.0031399184372276068,0.22829538583755493,0.4080505520105362,-0.4640960097312927,-0.5927886962890625
1,2021-06-08 16:06:42.2090,00:35,60,3,2021-06-08 16:06:41.7710,1623161201.7714891,-1.2720762491226196,0.04011381417512894,0.27249640226364136,0.4128570556640625,-0.4469451904296875,-0.5843658447265625
1,2021-06-08 16:06:42.2090,00:35,60,3,2021-06-08 16:06:41.7720,1623161201.771529,-1.3823415040969849,0.08087988197803497,0.3501019775867462,0.413330078125,-0.4443511962890625,-0.57781982421875
1,2021-06-08 16:06:42.2090,00:35,60,3,2021-06-08 16:06:41.7880,1623161201.7883968,-1.604421615600586,0.11120343208312988,0.4704771339893341,0.4109649807214737,-0.4576262831687927,-0.5725250244140625
1,2021-06-08 16:06:42.2090,00:35,60,3,2021-06-08 16:06:41.8050,1623161201.8053842,-1.8307042121887207,0.14116506278514862,0.6148161888122559,0.3999023586511612,-0.4605255126953125,-0.5631865859031677
1,2021-06-08 16:06:42.2090,00:35,60,3,2021-06-08 16:06:41.8190,1623161201.819223,-2.017578125,0.20053809881210327,0.7624623775482178,0.3986511379480362,-0.4529876708984375,-0.5631256103515625
1,2021-06-08 16:06:42.2090,00:35,60,3,2021-06-08 16:06:41.8300,1623161201.8302479,-2.1860218048095703,0.24726645648479462,0.9301056861877441,0.3980865627527237,-0.4209289252758026,-0.597686767578125
1,2021-06-08 16:06:42.2090,00:35,60,3,2021-06-08 16:06:41.8470,1623161201.846918,-2.3249499797821045,0.28171685338020325,1.1166396141052246,0.4007415622472763,-0.4029235541820526,-0.6137084364891052
1,2021-06-08 16:06:42.2090,00:35,60,3,2021-06-08 16:06:41.8620,1623161201.8617702,-2.4470343589782715,0.3235897421836853,1.3212065696716309,0.3989257961511612,-0.349609375,-0.6366729736328125
1,2021-06-08 16:06:42.2090,00:35,60,3,2021-06-08 16:06:41.8760,1623161201.875795,-2.5949337482452393,0.36103299260139465,1.552868127822876,0.3959350734949112,-0.3325500190258026,-0.6468963623046875
1,2021-06-08 16:06:42.2090,00:35,60,3,2021-06-08 16:06:41.8910,1623161201.890667,-2.8157241344451904,0.36212781071662903,1.8332473039627075,0.3859863430261612,-0.3038482964038849,-0.67437744140625
1,2021-06-08 16:06:42.2090,00:35,60,3,2021-06-08 16:06:41.9060,1623161201.905785,-3.1355059146881104,0.36153125762939453,2.081528902053833,0.3804626613855362,-0.2868042290210724,-0.6773223280906677
1,2021-06-08 16:06:42.2090,00:35,60,3,2021-06-08 16:06:41.9210,1623161201.921076,-3.4500439167022705,0.31724584102630615,2.3467962741851807,0.405303955078125,-0.182098388671875,-0.6906585693359375
1,2021-06-08 16:06:42.2090,00:35,60,3,2021-06-08 16:06:41.9360,1623161201.9358668,-3.836968183517456,0.31622982025146484,2.5641846656799316,0.4088440090417862,-0.1207122951745987,-0.7149657607078552
1,2021-06-08 16:06:42.2090,00:35,60,3,2021-06-08 16:06:41.9510,1623161201.950947,-4.094930648803711,0.32838529348373413,2.809393882751465,0.3997344821691513,0.02099609375,-0.7492370009422302
1,2021-06-08 16:06:42.2090,00:35,60,3,2021-06-08 16:06:41.9660,1623161201.966166,-4.277486801147461,0.3435346782207489,3.019564390182495,0.3856964111328125,0.040756210684776306,-0.7674559950828552
1,2021-06-08 16:06:42.2090,00:35,60,3,2021-06-08 16:06:41.9820,1623161201.982339,-4.511061668395996,0.3182429075241089,3.19809627532959,0.3967285007238388,0.1817779429256916,-0.8048858046531677
1,2021-06-08 16:06:42.2090,00:35,60,3,2021-06-08 16:06:41.9970,1623161201.996872,-4.463188171386719,0.2747172713279724,3.38226056098938,0.4313201904296875,0.31094358023256063,-0.82049560546875
1,2021-06-08 16:06:42.2090,00:35,60,3,2021-06-08 16:06:42.0140,1623161202.01367,-4.266197681427002,0.2527312934398651,3.611802101135254,0.4640350341796875,0.461441021412611,-0.78387451171875
1,2021-06-08 16:06:42.2090,00:35,60,3,2021-06-08 16:06:42.0260,1623161202.025992,-4.064486980438232,0.30749624967575073,3.8197731971740723,0.45880126953125,0.4302825778722763,-0.7475128173828125
1,2021-06-08 16:06:42.2090,00:35,60,3,2021-06-08 16:06:42.0410,1623161202.0406132,-4.212049961090088,0.40185898542404175,3.9924497604370117,0.4714813232421875,0.4360198676586151,-0.6858978271484375
1,2021-06-08 16:06:42.2090,00:35,60,3,2021-06-08 16:06:42.0560,1623161202.056217,-4.444445610046387,0.48876723647117615,4.169932842254639,0.492523193359375,0.4724578410387039,-0.66412353515625
1,2021-06-08 16:06:42.2090,00:35,60,3,2021-06-08 16:06:42.0710,1623161202.07075,-4.754136562347412,0.5531901717185974,4.3613057136535645,0.5291595160961151,0.5164489448070526,-0.6438140273094177
1,2021-06-08 16:06:42.2090,00:35,60,3,2021-06-08 16:06:42.0860,1623161202.0861979,-5.021396636962891,0.6269274950027466,4.57593297958374,0.54229736328125,0.5167388617992401,-0.61248779296875
1,2021-06-08 16:06:42.2090,00:35,60,3,2021-06-08 16:06:42.1010,1623161202.100621,-5.113900184631348,0.6905861496925354,4.834469795227051,0.5941924452781677,0.5086211264133453,-0.5731047987937927
1,2021-06-08 16:06:42.2090,00:35,60,3,2021-06-08 16:06:42.1190,1623161202.11909,-5.070095062255859,0.7646489143371582,5.095957279205322,0.6434936225414276,0.5141753554344177,-0.5609893798828125
1,2021-06-08 16:06:42.2090,00:35,60,3,2021-06-08 16:06:42.1710,1623161202.1709251,-4.798215389251709,0.8371294736862183,5.357209205627441,0.75592041015625,0.5380706191062927,-0.569488525390625
1,2021-06-08 16:06:42.2090,00:35,60,3,2021-06-08 16:06:42.1710,1623161202.170969,-4.365602016448975,0.9929683804512024,5.542009353637695,0.7969664931297302,0.563629150390625,-0.573760986328125
1,2021-06-08 16:06:42.2090,00:35,60,3,2021-06-08 16:06:42.1710,1623161202.1709828,-3.6494643688201904,1.108685851097107,5.704245090484619,0.919113039970398,0.7147063612937927,-0.6241301894187927
1,2021-06-08 16:06:42.2090,00:35,60,3,2021-06-08 16:06:42.2050,1623161202.204812,-2.799083948135376,1.2604594230651855,5.8026814460754395,0.9792937636375427,0.8071746230125427,-0.676788330078125
1,2021-06-08 16:06:42.2090,00:35,60,3,2021-06-08 16:06:42.2050,1623161202.204862,-1.9309945106506348,1.4233561754226685,5.869204521179199,1.0553740859031677,0.8874206244945526,-0.7628174424171448
1,2021-06-08 16:06:42.2090,00:35,60,3,2021-06-08 16:06:42.2100,1623161202.209512,-1.0989042520523071,1.610493779182434,5.887075901031494,1.0476683974266052,0.8351134657859802,-0.7861175537109375
1,2021-06-08 16:06:42.2090,00:35,60,3,2021-06-08 16:06:42.2210,1623161202.220708,-0.36286696791648865,1.8628016710281372,5.8310227394104,1.0133971571922302,0.6470183730125427,-0.7944488525390625
1,2021-06-08 16:06:42.2090,00:35,60,3,2021-06-08 16:06:42.2390,1623161202.238861,0.5416011810302734,2.0725512504577637,5.723300457000732,1.026412844657898,0.6038817763328552,-0.7923736572265625
1,2021-06-08 16:06:42.2090,00:35,60,3,2021-06-08 16:06:42.2850,1623161202.284931,1.7659103870391846,2.254446268081665,5.456439018249512,1.1195982694625854,0.5778197646141052,-0.72430419921875
1,2021-06-08 16:06:42.2090,00:35,60,3,2021-06-08 16:06:42.2850,1623161202.284987,3.1737897396087646,2.5783350467681885,5.061150550842285,1.1894225478172302,0.5790404975414276,-0.72357177734375
1,2021-06-08 16:06:42.2090,00:35,60,3,2021-06-08 16:06:42.2850,1623161202.284999,4.596693992614746,2.736943244934082,4.5115485191345215,1.358489990234375,0.6147002885118127,-0.689727783203125
1,2021-06-08 16:06:42.2090,00:35,60,3,2021-06-08 16:06:42.2970,1623161202.2965279,5.565784454345703,2.7859463691711426,3.7304863929748535,1.4283294081687927,0.6764221265912056,-0.7122497856616974
1,2021-06-08 16:06:42.2090,00:35,60,3,2021-06-08 16:06:42.3110,1623161202.3113499,5.890206336975098,2.989083766937256,2.992830991744995,1.3606414198875427,0.7942962646484375,-0.6670227646827698
1,2021-06-08 16:06:42.2090,00:35,60,3,2021-06-08 16:06:42.3260,1623161202.326236,5.30168342590332,2.89300537109375,2.432882308959961,1.2756652235984802,0.7291412055492401,-0.5831299126148224
1,2021-06-08 16:06:42.2090,00:35,60,3,2021-06-08 16:06:42.3410,1623161202.3407679,3.7398622035980225,2.378779411315918,1.9648919105529785,1.23382568359375,0.2408446967601776,-0.5249329209327698
1,2021-06-08 16:06:42.2090,00:35,60,3,2021-06-08 16:06:42.3560,1623161202.3562288,1.4628233909606934,1.7475435733795166,1.5176445245742798,1.1789245009422302,-0.07861322164535522,-0.517547607421875
1,2021-06-08 16:06:42.2090,00:35,60,3,2021-06-08 16:06:42.3710,1623161202.371026,-0.6146559715270996,1.1487370729446411,1.2216928005218506,1.091537594795227,-0.5635529160499573,-0.6377869248390198
1,2021-06-08 16:06:42.2090,00:35,60,3,2021-06-08 16:06:42.3950,1623161202.3948421,-2.144096851348877,0.6953430771827698,0.9564699530601501,1.0368651747703552,-0.625396728515625,-0.6749573647975922
1,2021-06-08 16:06:42.2090,00:35,60,3,2021-06-08 16:06:42.4060,1623161202.405729,-2.922156810760498,0.3657265305519104,0.7710475921630859,0.9494933485984802,-0.43963623046875,-0.7467804253101349
1,2021-06-08 16:06:42.2090,00:35,60,3,2021-06-08 16:06:42.4160,1623161202.416356,-3.26883602142334,0.1720031350851059,0.5918949246406555,0.900375247001648,-0.3181915283203125,-0.7667388916015625
1,2021-06-08 16:06:42.2090,00:35,60,3,2021-06-08 16:06:42.4310,1623161202.431006,-3.464545965194702,0.0017850653966888785,0.3913218379020691,0.7875059843063354,-0.1867675483226776,-0.782928466796875
1,2021-06-08 16:06:42.2090,00:35,60,3,2021-06-08 16:06:42.4460,1623161202.446282,-3.719755172729492,-0.16454026103019714,0.2035551518201828,0.730453372001648,-0.1368560492992401,-0.7553711235523224
1,2021-06-08 16:06:42.2090,00:35,60,3,2021-06-08 16:06:42.4610,1623161202.4611259,-3.896162271499634,-0.3054150938987732,-0.014666659757494926,0.6485595703125,-0.0088653564453125,-0.658905029296875
1,2021-06-08 16:06:42.2090,00:35,60,3,2021-06-08 16:06:42.4760,1623161202.476412,-3.8708016872406006,-0.4160928726196289,-0.23831039667129517,0.6181028485298157,0.06948855519294739,-0.6284789741039276
1,2021-06-08 16:06:42.2090,00:35,60,3,2021-06-08 16:06:42.4910,1623161202.491188,-3.6963257789611816,-0.49298951029777527,-0.47916746139526367,0.559432864189148,0.23764044046401978,-0.6093597412109375
1,2021-06-08 16:06:42.2090,00:35,60,3,2021-06-08 16:06:42.5060,1623161202.506459,-3.3387112617492676,-0.4724717140197754,-0.7507691979408264,0.5276641845703125,0.3271942138671875,-0.610870361328125
1,2021-06-08 16:06:42.2090,00:35,60,3,2021-06-08 16:06:42.5210,1623161202.521119,-2.7574520111083984,-0.3728468418121338,-0.9724600315093994,0.49417102336883545,0.4676513820886612,-0.6356048882007599
1,2021-06-08 16:06:42.2090,00:35,60,3,2021-06-08 16:06:42.5370,1623161202.536547,-1.946890950202942,-0.2718704342842102,-1.1456671953201294,0.5014953017234802,0.5235290825366974,-0.65740966796875
1,2021-06-08 16:06:42.2090,00:35,60,3,2021-06-08 16:06:42.5510,1623161202.551214,-1.0515106916427612,-0.1271233856678009,-1.2583281993865967,0.5172119736671448,0.5774383097887039,-0.7293549478054047
1,2021-06-08 16:06:42.2090,00:35,60,3,2021-06-08 16:06:42.5680,1623161202.5675411,-0.09445644915103912,-0.012447932735085487,-1.3310953378677368,0.5362549424171448,0.5700835883617401,-0.7582703530788422
1,2021-06-08 16:06:42.2090,00:35,60,3,2021-06-08 16:06:42.5810,1623161202.581211,0.7265245318412781,0.11522187292575836,-1.4221309423446655,0.5863341093063354,0.4830780029296875,-0.8081207275390625
1,2021-06-08 16:06:42.2090,00:35,60,3,2021-06-08 16:06:42.5970,1623161202.596636,1.4871711730957031,0.12303372472524643,-1.4875693321228027,0.60614013671875,0.4162292927503586,-0.8087921738624573
1,2021-06-08 16:06:42.2090,00:35,60,3,2021-06-08 16:06:42.6110,1623161202.611387,2.17071795463562,0.22966855764389038,-1.5287197828292847,0.5787047147750854,0.317718505859375,-0.8294067680835724
1,2021-06-08 16:06:42.2090,00:35,60,3,2021-06-08 16:06:42.6270,1623161202.627044,2.7033255100250244,0.3731714189052582,-1.5554122924804688,0.5703276991844177,0.2548675388097763,-0.8148804008960724
1,2021-06-08 16:06:42.2090,00:35,60,3,2021-06-08 16:06:42.6420,1623161202.641615,2.9199299812316895,0.5415433645248413,-1.526606559753418,0.6048125624656677,0.0870971828699112,-0.7530517578125
1,2021-06-08 16:06:42.2090,00:35,60,3,2021-06-08 16:06:42.6570,1623161202.656713,2.618908643722534,0.6189835667610168,-1.4256083965301514,0.6370238661766052,-0.0010375939309597015,-0.7126922607421875
1,2021-06-08 16:06:42.2090,00:35,60,3,2021-06-08 16:06:42.6740,1623161202.673867,1.9249122142791748,0.6711692810058594,-1.3447028398513794,0.6748505234718323,-0.1815185658633709,-0.647445797920227
1,2021-06-08 16:06:42.2090,00:35,60,3,2021-06-08 16:06:42.6870,1623161202.68683,1.1288959980010986,0.7349775433540344,-1.2816940546035767,0.680618166923523,-0.230575580149889,-0.643096923828125
1,2021-06-08 16:06:42.2090,00:35,60,3,2021-06-08 16:06:42.7400,1623161202.739584,0.7511550784111023,0.8500143885612488,-1.202162265777588,0.7098997235298157,-0.15396120864897966,-0.694854736328125
1,2021-06-08 16:06:42.2090,00:35,60,3,2021-06-08 16:06:42.7400,1623161202.739678,0.8410629034042358,0.9919129610061646,-1.1501415967941284,0.757034182548523,-0.04635619930922985,-0.7225799560546875
1,2021-06-08 16:06:42.2090,00:35,60,3,2021-06-08 16:06:42.7400,1623161202.739733,1.1499779224395752,1.1106376647949219,-1.1631252765655518,0.9106138944625854,0.09249875880777836,-0.7142486870288849
1,2021-06-08 16:06:42.2090,00:35,60,3,2021-06-08 16:06:42.7770,1623161202.777316,1.345280408859253,1.1977691650390625,-1.229142427444458,0.9864805340766907,0.08631895110011101,-0.6666565239429474
1,2021-06-08 16:06:42.2090,00:35,60,3,2021-06-08 16:06:42.7770,1623161202.777446,1.3671575784683228,1.2069308757781982,-1.2471426725387573,1.1041258573532104,-0.005554214119911194,-0.4863128662109375
1,2021-06-08 16:06:42.2090,00:35,60,3,2021-06-08 16:06:42.7780,1623161202.777508,1.2308822870254517,1.1735239028930664,-1.2589610815048218,1.1491546034812927,-0.04853822663426399,-0.4232025444507599
1,2021-06-08 16:06:42.2090,00:35,60,3,2021-06-08 16:06:42.7910,1623161202.791366,1.0883948802947998,1.1476696729660034,-1.2467478513717651,1.2071074843406677,-0.06452944129705429,-0.3536682724952698
1,2021-06-08 16:06:42.2090,00:35,60,3,2021-06-08 16:06:42.8070,1623161202.806988,1.0266435146331787,1.1218154430389404,-1.231467366218567,1.2422943711280823,-0.04142763465642929,-0.33480843901634216
1,2021-06-08 16:06:42.2090,00:35,60,3,2021-06-08 16:06:42.8220,1623161202.821568,1.009832739830017,1.0530023574829102,-1.2163301706314087,1.3321074843406677,0.02543637901544571,-0.2771148979663849
1,2021-06-08 16:06:42.2090,00:35,60,3,2021-06-08 16:06:42.8380,1623161202.83759,1.0193027257919312,0.8512272238731384,-1.182768702507019,1.3712157011032104,0.020812980830669403,-0.2528686672449112
1,2021-06-08 16:06:42.2090,00:35,60,3,2021-06-08 16:06:42.8520,1623161202.8517609,0.9301885962486267,0.6082334518432617,-1.147712230682373,1.3686827421188354,-0.02978520095348358,-0.2464141547679901
1,2021-06-08 16:06:42.2090,00:35,60,3,2021-06-08 16:06:42.8740,1623161202.873839,0.7174180746078491,0.3727461099624634,-1.1114490032196045,1.316696047782898,-0.05406193435192108,-0.24723820388317108
1,2021-06-08 16:06:42.2090,00:35,60,3,2021-06-08 16:06:42.8820,1623161202.8818321,0.3748733699321747,0.2145465910434723,-1.0633536577224731,1.1825713515281677,-0.062438949942588806,-0.22726446390151978
1,2021-06-08 16:06:42.2090,00:35,60,3,2021-06-08 16:06:42.8970,1623161202.896977,-0.007561153266578913,0.0532357394695282,-1.029650092124939,1.1476133465766907,-0.04464726150035858,-0.197418212890625
1,2021-06-08 16:06:42.2090,00:35,60,3,2021-06-08 16:06:42.9120,1623161202.911638,-0.30110034346580505,-0.15917879343032837,-1.0069143772125244,1.1194915771484375,0.017623886466026306,-0.13342292606830597
1,2021-06-08 16:06:42.2090,00:35,60,3,2021-06-08 16:06:42.9270,1623161202.92711,-0.4482639729976654,-0.36456334590911865,-0.9860733151435852,1.0921019911766052,0.054977402091026306,-0.11384592950344086
1,2021-06-08 16:06:42.2090,00:35,60,3,2021-06-08 16:06:42.9420,1623161202.941852,-0.4576132893562317,-0.527053713798523,-0.9595165252685547,1.0574341416358948,0.11737060546875,-0.1119384914636612
1,2021-06-08 16:06:42.2090,00:35,60,3,2021-06-08 16:06:42.9570,1623161202.957227,-0.4677093029022217,-0.7069135308265686,-0.9154505729675293,1.0922852158546448,0.1423797905445099,-0.10211189091205597
1,2021-06-08 16:06:42.2090,00:35,60,3,2021-06-08 16:06:42.9720,1623161202.971898,-0.6019752025604248,-1.0304410457611084,-0.9047424793243408,1.262679934501648,0.1561889350414276,-0.04145817458629608
1,2021-06-08 16:06:42.2090,00:35,60,3,2021-06-08 16:06:42.9870,1623161202.987217,-0.8341288566589355,-1.3803335428237915,-0.9138678312301636,1.3385008573532104,0.15830984711647034,0.003417953848838806
1,2021-06-08 16:06:42.2090,00:35,60,3,2021-06-08 16:06:43.0020,1623161203.001723,-1.0800511837005615,-1.6983189582824707,-0.9270099997520447,1.4416808485984802,0.1556853950023651,0.07180781662464142
1,2021-06-08 16:06:42.2090,00:35,60,3,2021-06-08 16:06:43.0170,1623161203.017348,-1.3864635229110718,-1.90801203250885,-0.9411913156509399,1.4705963134765625,0.1575775146484375,0.10578912496566772
1,2021-06-08 16:06:42.2090,00:35,60,3,2021-06-08 16:06:43.0320,1623161203.031939,-1.7178484201431274,-1.9965215921401978,-0.9548943638801575,1.4913483262062073,0.1571960151195526,0.19570913910865784
1,2021-06-08 16:06:42.2090,00:35,60,3,2021-06-08 16:06:43.0510,1623161203.051042,-2.0283589363098145,-2.0583748817443848,-0.9722456336021423,1.511825442314148,0.16310113668441772,0.2034148871898651
1,2021-06-08 16:06:42.2090,00:35,60,3,2021-06-08 16:06:43.0640,1623161203.064333,-2.2995717525482178,-2.0916500091552734,-0.995280385017395,1.5433501601219177,0.16096490621566772,0.17967218160629272
1,2021-06-08 16:06:42.2090,00:35,60,3,2021-06-08 16:06:43.0770,1623161203.077416,-2.573374032974243,-2.0239598751068115,-0.9934004545211792,1.5281066298484802,0.1539458930492401,0.14802545309066772
1,2021-06-08 16:06:42.2090,00:35,60,3,2021-06-08 16:06:43.0920,1623161203.0920591,-2.8639466762542725,-1.8618074655532837,-0.9752137660980225,1.4847869277000427,0.1506042182445526,0.089141845703125
1,2021-06-08 16:06:42.2090,00:35,60,3,2021-06-08 16:06:43.1220,1623161203.122371,-3.113036632537842,-1.6727877855300903,-0.9540967345237732,1.4654844403266907,0.15016165375709534,0.05442807078361511
1,2021-06-08 16:06:42.2090,00:35,60,3,2021-06-08 16:06:43.1230,1623161203.122937,-3.292739152908325,-1.4598501920700073,-0.8897952437400818,1.423858642578125,0.18887323141098022,-0.03224185109138489
1,2021-06-08 16:06:42.2090,00:35,60,3,2021-06-08 16:06:43.1380,1623161203.137679,-3.3620612621307373,-1.2293453216552734,-0.8182827234268188,1.396133303642273,0.22608941793441772,-0.06451418995857239
1,2021-06-08 16:06:42.2090,00:35,60,3,2021-06-08 16:06:43.1520,1623161203.15238,-3.256378173828125,-1.0336074829101562,-0.745572566986084,1.3286284804344177,0.2995910048484802,-0.12782296538352966
1,2021-06-08 16:06:42.2090,00:35,60,3,2021-06-08 16:06:43.1680,1623161203.1680431,-2.9645397663116455,-0.843177318572998,-0.6087441444396973,1.2930755019187927,0.33209228515625,-0.15106207132339478
1,2021-06-08 16:06:42.2090,00:35,60,3,2021-06-08 16:06:43.1820,1623161203.1824188,-2.5057971477508545,-0.6310917139053345,-0.4043513238430023,1.2326812148094177,0.3702086806297302,-0.19277960062026978
1,2021-06-08 16:06:42.2090,00:35,60,3,2021-06-08 16:06:43.1980,1623161203.1976871,-1.9847447872161865,-0.4694831073284149,-0.1868184506893158,1.2095945477485657,0.3675841689109802,-0.19606024026870728
1,2021-06-08 16:06:42.2090,00:35,60,3,2021-06-08 16:06:43.2120,1623161203.212208,-1.4927928447723389,-0.32752516865730286,0.06476185470819473,1.1451568007469177,0.3336791396141052,-0.19026190042495728
1,2021-06-08 16:06:42.2090,00:35,60,3,2021-06-08 16:06:43.2280,1623161203.22752,-1.0648657083511353,-0.2366349697113037,0.32996049523353577,1.1041106581687927,0.3097381591796875,-0.18408210575580597
1,2021-06-08 16:06:42.2090,00:35,60,3,2021-06-08 16:06:43.2420,1623161203.24201,-0.678751528263092,-0.17716045677661896,0.5746970176696777,1.0151976943016052,0.2683104872703552,-0.1739349663257599
1,2021-06-08 16:06:42.2090,00:35,60,3,2021-06-08 16:06:43.2580,1623161203.257896,-0.3251601755619049,-0.13764314353466034,0.8113617300987244,0.9745940566062927,0.2733458876609802,-0.1685333400964737
1,2021-06-08 16:06:42.2090,00:35,60,3,2021-06-08 16:06:43.2720,1623161203.272207,-0.023493805900216103,-0.0918000191450119,1.0439417362213135,0.899627685546875,0.2865753173828125,-0.15759284794330597
1,2021-06-08 16:06:42.2090,00:35,60,3,2021-06-08 16:06:43.2880,1623161203.287817,0.20484109222888947,-0.060517456382513046,1.252339482307434,0.8645781874656677,0.2932738661766052,-0.15820318460464478
1,2021-06-08 16:06:42.2090,00:35,60,3,2021-06-08 16:06:43.3020,1623161203.302427,0.34172719717025757,-0.046432528644800186,1.451273798942566,0.8075713515281677,0.3038634657859802,-0.16699226200580597
1,2021-06-08 16:06:42.2090,00:35,60,3,2021-06-08 16:06:43.3180,1623161203.317694,0.4030125141143799,-0.05125418305397034,1.6353996992111206,0.7890318632125854,0.3146361708641052,-0.17335514724254608
1,2021-06-08 16:06:42.2090,00:35,60,3,2021-06-08 16:06:43.3320,1623161203.332193,0.43593958020210266,-0.0867711678147316,1.7935839891433716,0.7706298828125,0.33087158203125,-0.19171148538589478
1,2021-06-08 16:06:42.2090,00:35,60,3,2021-06-08 16:06:43.3480,1623161203.347797,0.4268246293067932,-0.17018190026283264,1.9105093479156494,0.7641295790672302,0.3344879150390625,-0.20123296976089478
1,2021-06-08 16:06:42.2090,00:35,60,3,2021-06-08 16:06:43.3620,1623161203.36233,0.34351620078086853,-0.25832614302635193,2.0047411918640137,0.7461394667625427,0.3328094482421875,-0.21656808257102966
1,2021-06-08 16:06:42.2090,00:35,60,3,2021-06-08 16:06:43.3780,1623161203.3777862,0.17478446662425995,-0.3524526357650757,2.0901577472686768,0.7349090576171875,0.3165740668773651,-0.2225952446460724
1,2021-06-08 16:06:42.2090,00:35,60,3,2021-06-08 16:06:43.3920,1623161203.39247,-0.1457543969154358,-0.4475434720516205,2.1802635192871094,0.7160643935203552,0.2522430121898651,-0.21600341796875
1,2021-06-08 16:06:42.2090,00:35,60,3,2021-06-08 16:06:43.4080,1623161203.4077601,-0.5653323531150818,-0.5476322174072266,2.269162654876709,0.7067565321922302,0.2192992866039276,-0.20867925882339478
1,2021-06-08 16:06:42.2090,00:35,60,3,2021-06-08 16:06:43.4220,1623161203.422412,-1.0207395553588867,-0.6424682140350342,2.3618905544281006,0.6965941190719604,0.1754150092601776,-0.18136602640151978
1,2021-06-08 16:06:42.2090,00:35,60,3,2021-06-08 16:06:43.4380,1623161203.4376621,-1.4827120304107666,-0.6955490112304688,2.4709744453430176,0.6949155926704407,0.16459649801254272,-0.16676336526870728
1,2021-06-08 16:06:42.2090,00:35,60,3,2021-06-08 16:06:43.4520,1623161203.452198,-1.9652538299560547,-0.7232261896133423,2.6113831996917725,0.7159271240234375,0.1554412841796875,-0.13290414214134216
1,2021-06-08 16:06:42.2090,00:35,60,3,2021-06-08 16:06:43.4680,1623161203.468039,-2.488912582397461,-0.7539933919906616,2.765302896499634,0.737396240234375,0.1542968451976776,-0.11323559284210205
1,2021-06-08 16:06:42.2090,00:35,60,3,2021-06-08 16:06:43.4820,1623161203.482383,-3.066633462905884,-0.7245524525642395,2.951254367828369,0.7747802138328552,0.17156982421875,-0.07669073343276978
1,2021-06-08 16:06:42.2090,00:35,60,3,2021-06-08 16:06:43.4980,1623161203.49792,-3.6883749961853027,-0.6500126719474792,3.1541295051574707,0.8027650117874146,0.2008209526538849,-0.06352236866950989
1,2021-06-08 16:06:42.2090,00:35,60,3,2021-06-08 16:06:43.5120,1623161203.512463,-4.2856340408325195,-0.5966924428939819,3.327852249145508,0.882415771484375,0.2729797512292862,-0.032974302768707275
1,2021-06-08 16:06:42.2090,00:35,60,3,2021-06-08 16:06:43.5280,1623161203.527954,-4.788187026977539,-0.6086700558662415,3.4592368602752686,0.9359132051467896,0.3356323689222336,-0.021408110857009888
1,2021-06-08 16:06:42.2090,00:35,60,3,2021-06-08 16:06:43.5420,1623161203.5424771,-5.106295108795166,-0.6843027472496033,3.5107502937316895,1.0429839491844177,0.5177154392004013,-0.05238346755504608
1,2021-06-08 16:06:42.2090,00:35,60,3,2021-06-08 16:06:43.5580,1623161203.558281,-5.23450231552124,-0.7438145279884338,3.515321969985962,1.0705565214157104,0.612457275390625,-0.06732182204723358
1,2021-06-08 16:06:42.2090,00:35,60,3,2021-06-08 16:06:43.5730,1623161203.572576,-5.142241954803467,-0.745294988155365,3.4512550830841064,1.0565184950828552,0.759368933737278,-0.12069706618785858
1,2021-06-08 16:06:42.2090,00:35,60,3,2021-06-08 16:06:43.5880,1623161203.588126,-4.761301040649414,-0.6866167783737183,3.3318700790405273,1.0282898545265198,0.7982941120862961,-0.14324961602687836
1,2021-06-08 16:06:42.2090,00:35,60,3,2021-06-08 16:06:43.6030,1623161203.602601,-3.8849985599517822,-0.528233528137207,3.2031538486480713,0.955291748046875,0.8487091101706028,-0.22314459085464478
1,2021-06-08 16:06:42.2090,00:35,60,3,2021-06-08 16:06:43.6180,1623161203.6182199,-2.502973794937134,-0.22497990727424622,3.0163512229919434,0.9127958416938782,0.857223529368639,-0.2819061875343323
1,2021-06-08 16:06:42.2090,00:35,60,3,2021-06-08 16:06:43.6330,1623161203.63265,-0.8633856773376465,0.12112078070640564,2.7948405742645264,0.8643646240234375,0.8404541173949838,-0.3978118896484375
1,2021-06-08 16:06:42.2090,00:35,60,3,2021-06-08 16:06:43.6480,1623161203.6481729,0.7479954361915588,0.4394124746322632,2.5405917167663574,0.8632200956344604,0.8023986779153347,-0.4398498982191086
1,2021-06-08 16:06:42.2090,00:35,60,3,2021-06-08 16:06:43.6630,1623161203.662632,2.121398687362671,0.7224649786949158,2.2201895713806152,0.8996581435203552,0.6999207139015198,-0.45074470341205597
1,2021-06-08 16:06:42.2090,00:35,60,3,2021-06-08 16:06:43.6780,1623161203.678086,3.2341878414154053,0.9477981925010681,1.81475830078125,0.9196622967720032,0.6551819369196892,-0.4145660698413849
1,2021-06-08 16:06:42.2090,00:35,60,3,2021-06-08 16:06:43.6930,1623161203.692659,4.076902866363525,1.1178056001663208,1.3297373056411743,0.9465788006782532,0.5813446491956711,-0.36296088993549347
1,2021-06-08 16:06:42.2090,00:35,60,3,2021-06-08 16:06:43.7080,1623161203.708174,4.708868503570557,1.2607249021530151,0.8050180673599243,0.9447937607765198,0.5522918999195099,-0.33764660358428955
1,2021-06-08 16:06:42.2090,00:35,60,3,2021-06-08 16:06:43.7230,1623161203.7226682,5.028259754180908,1.3291423320770264,0.28971347212791443,0.9522857666015625,0.4999847412109375,-0.279449462890625
1,2021-06-08 16:06:42.2090,00:35,60,3,2021-06-08 16:06:43.7380,1623161203.7382731,5.004519939422607,1.2407519817352295,-0.20745529234409332,0.9608307480812073,0.4722595065832138,-0.25521858036518097
1,2021-06-08 16:06:42.2090,00:35,60,3,2021-06-08 16:06:43.7530,1623161203.752742,4.718853950500488,1.0314598083496094,-0.6479698419570923,0.9595183730125427,0.4124298393726349,-0.23490909487009048
1,2021-06-08 16:06:42.2090,00:35,60,3,2021-06-08 16:06:43.7680,1623161203.7682362,4.107390403747559,0.8610225915908813,-0.98816978931427,0.9467466473579407,0.3839417099952698,-0.22256476804614067
1,2021-06-08 16:06:42.2090,00:35,60,3,2021-06-08 16:06:43.7830,1623161203.7827392,3.3919663429260254,0.6365851759910583,-1.2477654218673706,0.9357298016548157,0.2970734089612961,-0.1858216244727373
1,2021-06-08 16:06:42.2090,00:35,60,3,2021-06-08 16:06:43.7980,1623161203.798252,2.5185670852661133,0.4028960168361664,-1.4272414445877075,0.9420928359031677,0.2678070217370987,-0.17999277589842677
1,2021-06-08 16:06:42.2090,00:35,60,3,2021-06-08 16:06:43.8130,1623161203.812823,1.752205491065979,0.1431424617767334,-1.487756371498108,0.9717102646827698,0.1800384670495987,-0.17187500931322575
1,2021-06-08 16:06:42.2090,00:35,60,3,2021-06-08 16:06:43.8280,1623161203.828265,1.1747726202011108,-0.09014512598514557,-1.514924168586731,0.9858397841453552,0.1033630520105362,-0.1810151319950819
1,2021-06-08 16:06:42.2090,00:35,60,3,2021-06-08 16:06:43.8430,1623161203.8428721,0.761936366558075,-0.27933233976364136,-1.5247074365615845,0.9722595810890198,0.018890365958213806,-0.1967773772776127
1,2021-06-08 16:06:42.2090,00:35,60,3,2021-06-08 16:06:43.8580,1623161203.858408,0.5266565084457397,-0.41030314564704895,-1.4911386966705322,0.9496155977249146,0.001892082393169403,-0.20239258091896772
1,2021-06-08 16:06:42.2090,00:35,60,3,2021-06-08 16:06:43.8730,1623161203.872895,0.3385726809501648,-0.47795382142066956,-1.438347339630127,0.8822174072265625,-0.03515623137354851,-0.2143707857467234
1,2021-06-08 16:06:42.2090,00:35,60,3,2021-06-08 16:06:43.8890,1623161203.888581,0.1720736175775528,-0.4607394337654114,-1.3859288692474365,0.8400574326515198,-0.0619811974465847,-0.22335822833701968
1,2021-06-08 16:06:42.2090,00:35,60,3,2021-06-08 16:06:43.9030,1623161203.902889,0.0024092961102724075,-0.4367627203464508,-1.2984833717346191,0.7817229628562927,-0.08491515507921576,-0.23284915136173368
1,2021-06-08 16:06:42.2090,00:35,60,3,2021-06-08 16:06:43.9190,1623161203.918678,-0.18892721831798553,-0.4194827973842621,-1.253797173500061,0.780013918876648,-0.0598297156393528,-0.2513733562082052
1,2021-06-08 16:06:42.2090,00:35,60,3,2021-06-08 16:06:43.9330,1623161203.932936,-0.2578519582748413,-0.4028921127319336,-1.2000337839126587,0.8021087050437927,-0.0008087009191513062,-0.26495364867150784
1,2021-06-08 16:06:42.2090,00:35,60,3,2021-06-08 16:06:43.9480,1623161203.9484692,-0.2076636105775833,-0.40205028653144836,-1.1536427736282349,0.830154299736023,0.046096786856651306,-0.2810821905732155
1,2021-06-08 16:06:42.2090,00:35,60,3,2021-06-08 16:06:43.9630,1623161203.9629622,-0.0029301554895937443,-0.4071289300918579,-1.100105881690979,0.8963927030563354,0.1358795240521431,-0.3243866842240095
1,2021-06-08 16:06:42.2090,00:35,60,3,2021-06-08 16:06:43.9780,1623161203.978462,0.27346378564834595,-0.3906117379665375,-1.0946868658065796,0.9311675429344177,0.1851501166820526,-0.3560944274067879
1,2021-06-08 16:06:42.2090,00:35,60,3,2021-06-08 16:06:43.9930,1623161203.993118,0.5525063276290894,-0.3507269024848938,-1.0989582538604736,1.010726809501648,0.2436675876379013,-0.38847361132502556
1,2021-06-08 16:06:42.2090,00:35,60,3,2021-06-08 16:06:44.0090,1623161204.0086179,0.7982411980628967,-0.3447592854499817,-1.1189496517181396,1.0623168349266052,0.2573089450597763,-0.3900757506489754
1,2021-06-08 16:06:42.2090,00:35,60,3,2021-06-08 16:06:44.0230,1623161204.023021,0.9619196057319641,-0.365134060382843,-1.1580607891082764,1.151641845703125,0.231689453125,-0.34210212528705597
1,2021-06-08 16:06:42.2090,00:35,60,3,2021-06-08 16:06:44.0420,1623161204.042118,1.065329670906067,-0.39689838886260986,-1.1734504699707031,1.1795348525047302,0.1966552585363388,-0.2944794148206711
1,2021-06-08 16:06:42.2090,00:35,60,3,2021-06-08 16:06:44.0540,1623161204.053535,1.138166069984436,-0.39489543437957764,-1.195818543434143,1.1869964599609375,0.079986572265625,-0.20454413443803787
1,2021-06-08 16:06:42.2090,00:35,60,3,2021-06-08 16:06:44.0690,1623161204.068591,1.1442281007766724,-0.39772796630859375,-1.234230875968933,1.1899872422218323,0.04592898488044739,-0.15725716203451157
1,2021-06-08 16:06:42.2090,00:35,60,3,2021-06-08 16:06:44.0830,1623161204.083119,1.140267252922058,-0.44339877367019653,-1.2756167650222778,1.203506350517273,0.033676087856292725,-0.05029302090406418
1,2021-06-08 16:06:42.2090,00:35,60,3,2021-06-08 16:06:44.0990,1623161204.0988889,1.1226614713668823,-0.4812881052494049,-1.2952498197555542,1.1838531494140625,0.030166596174240112,-0.011581480503082275
1,2021-06-08 16:06:42.2090,00:35,60,3,2021-06-08 16:06:44.1130,1623161204.113161,1.056126356124878,-0.5071529746055603,-1.3161314725875854,1.0638121962547302,-0.006011992692947388,0.03417965769767761
1,2021-06-08 16:06:42.2090,00:35,60,3,2021-06-08 16:06:44.1290,1623161204.128653,0.9607170224189758,-0.46987539529800415,-1.350419282913208,0.9806671142578125,-0.026901274919509888,0.03347775340080261
1,2021-06-08 16:06:42.2090,00:35,60,3,2021-06-08 16:06:44.1430,1623161204.1432118,0.6533628702163696,-0.38515251874923706,-1.3460825681686401,0.8546445965766907,-0.03588870167732239,-0.005020216107368469
1,2021-06-08 16:06:42.2090,00:35,60,3,2021-06-08 16:06:44.1590,1623161204.158659,0.18408505618572235,-0.3596450388431549,-1.3140742778778076,0.823043704032898,-0.055740416049957275,-0.01589970290660858
1,2021-06-08 16:06:42.2090,00:35,60,3,2021-06-08 16:06:44.1730,1623161204.173229,-0.1769397109746933,-0.35043689608573914,-1.2875441312789917,0.7675628662109375,-0.12124636769294739,-0.05638130009174347
1,2021-06-08 16:06:42.2090,00:35,60,3,2021-06-08 16:06:44.1890,1623161204.188803,-0.4288274049758911,-0.2632407248020172,-1.2463064193725586,0.7462463974952698,-0.09432980418205261,-0.06880193948745728
1,2021-06-08 16:06:42.2090,00:35,60,3,2021-06-08 16:06:44.2030,1623161204.203309,-0.4158511161804199,-0.1699342280626297,-1.1969741582870483,0.8025512099266052,0.022613525390625,-0.10597236454486847
1,2021-06-08 16:06:42.2090,00:35,60,3,2021-06-08 16:06:44.2190,1623161204.218967,-0.22122742235660553,-0.19652776420116425,-1.1577832698822021,0.8936155438423157,0.08755481243133545,-0.0983428955078125
1,2021-06-08 16:06:42.2090,00:35,60,3,2021-06-08 16:06:44.2340,1623161204.233542,-0.04480018839240074,-0.3042195737361908,-1.140955924987793,1.0426024794578552,0.16412341594696045,-0.04374699294567108
1,2021-06-08 16:06:42.2090,00:35,60,3,2021-06-08 16:06:44.2490,1623161204.249024,0.16786526143550873,-0.3265392780303955,-1.1257706880569458,1.0679779052734375,0.1729278564453125,-0.02650456130504608
1,2021-06-08 16:06:42.2090,00:35,60,3,2021-06-08 16:06:44.2630,1623161204.263396,0.4311913847923279,-0.2534123361110687,-1.1114096641540527,1.0867461562156677,0.17935168743133545,-0.03031925857067108
1,2021-06-08 16:06:42.2090,00:35,60,3,2021-06-08 16:06:44.2790,1623161204.2788792,0.7321884632110596,-0.17887286841869354,-1.0908300876617432,1.1078338623046875,0.1999969482421875,-0.02726750075817108
1,2021-06-08 16:06:42.2090,00:35,60,3,2021-06-08 16:06:44.2930,1623161204.2934132,1.1501613855361938,-0.14180006086826324,-1.1363428831100464,1.1454466581344604,0.23304742574691772,-0.02981571853160858
1,2021-06-08 16:06:42.2090,00:35,60,3,2021-06-08 16:06:44.3090,1623161204.3089972,1.6171927452087402,-0.08857226371765137,-1.1758885383605957,1.1430357694625854,0.25004565715789795,-0.04118350148200989
1,2021-06-08 16:06:42.2090,00:35,60,3,2021-06-08 16:06:44.3230,1623161204.323391,2.044696569442749,0.02111588791012764,-1.2214537858963013,1.105804443359375,0.2592315077781677,-0.09597781300544739
1,2021-06-08 16:06:42.2090,00:35,60,3,2021-06-08 16:06:44.3390,1623161204.339328,2.288388252258301,0.10655594617128372,-1.269768476486206,1.0968475341796875,0.2424774169921875,-0.10644540190696716
1,2021-06-08 16:06:42.2090,00:35,60,3,2021-06-08 16:06:44.3540,1623161204.3535771,2.3341469764709473,0.15160757303237915,-1.315064787864685,1.0921019911766052,0.21134942770004272,-0.11448672413825989
1,2021-06-08 16:06:42.2090,00:35,60,3,2021-06-08 16:06:44.3690,1623161204.369141,2.278639554977417,0.18738102912902832,-1.3525433540344238,1.07574462890625,0.20115667581558228,-0.12054449319839478
1,2021-06-08 16:06:42.2090,00:35,60,3,2021-06-08 16:06:44.3840,1623161204.3835359,2.224163293838501,0.2466675192117691,-1.393964409828186,1.0127716064453125,0.19772332906723022,-0.14976507425308228
1,2021-06-08 16:06:42.2090,00:35,60,3,2021-06-08 16:06:44.3990,1623161204.399034,2.150155544281006,0.2928003966808319,-1.4246405363082886,0.984405517578125,0.21234130859375,-0.16204839944839478
1,2021-06-08 16:06:42.2090,00:35,60,3,2021-06-08 16:06:44.4140,1623161204.413525,2.0498366355895996,0.3659909963607788,-1.4605157375335693,0.9172820448875427,0.25590503215789795,-0.18307501077651978
1,2021-06-08 16:06:42.2090,00:35,60,3,2021-06-08 16:06:44.4290,1623161204.429045,1.901653528213501,0.4399208724498749,-1.4935106039047241,0.8868407607078552,0.2844695448875427,-0.189849853515625
1,2021-06-08 16:06:42.2090,00:35,60,3,2021-06-08 16:06:44.4440,1623161204.443592,1.762445330619812,0.4817713797092438,-1.5473469495773315,0.831710696220398,0.3403319716453552,-0.1965790092945099
1,2021-06-08 16:06:42.2090,00:35,60,3,2021-06-08 16:06:44.4590,1623161204.459066,1.6510759592056274,0.5266019701957703,-1.6115907430648804,0.79864501953125,0.3663787245750427,-0.20225533843040466
1,2021-06-08 16:06:42.2090,00:35,60,3,2021-06-08 16:06:44.4740,1623161204.47358,1.5948102474212646,0.5856288075447083,-1.6963127851486206,0.7324371337890625,0.4282073378562927,-0.2132568359375
1,2021-06-08 16:06:42.2090,00:35,60,3,2021-06-08 16:06:44.4890,1623161204.4890928,1.5574318170547485,0.6411789059638977,-1.7982399463653564,0.7069549560546875,0.4567108154296875,-0.2160339653491974
1,2021-06-08 16:06:42.2090,00:35,60,3,2021-06-08 16:06:44.5040,1623161204.503594,1.5315629243850708,0.710949182510376,-1.937068223953247,0.6653594374656677,0.5185089111328125,-0.2308349907398224
1,2021-06-08 16:06:42.2090,00:35,60,3,2021-06-08 16:06:44.5190,1623161204.519102,1.5527477264404297,0.7758589386940002,-2.0905864238739014,0.6533201932907104,0.5532073378562927,-0.2290497124195099
1,2021-06-08 16:06:42.2090,00:35,60,3,2021-06-08 16:06:44.5340,1623161204.5336719,1.622604250907898,0.8322535157203674,-2.2770566940307617,0.648651123046875,0.6400145888328552,-0.2519684433937073
1,2021-06-08 16:06:42.2090,00:35,60,3,2021-06-08 16:06:44.5490,1623161204.549189,1.6119171380996704,0.8904963135719299,-2.458125114440918,0.6547088027000427,0.6877440810203552,-0.2598419189453125
1,2021-06-08 16:06:42.2090,00:35,60,3,2021-06-08 16:06:44.5640,1623161204.563737,1.542372226715088,0.9680611491203308,-2.635500192642212,0.6613158583641052,0.7546843886375427,-0.2722015678882599
1,2021-06-08 16:06:42.2090,00:35,60,3,2021-06-08 16:06:44.5790,1623161204.579196,1.45021653175354,1.0631662607192993,-2.7855632305145264,0.67108154296875,0.7781981825828552,-0.2780762016773224
1,2021-06-08 16:06:42.2090,00:35,60,3,2021-06-08 16:06:44.5940,1623161204.593714,1.2694488763809204,1.0402109622955322,-2.939073085784912,0.7160491347312927,0.827407717704773,-0.2713623344898224
1,2021-06-08 16:06:42.2090,00:35,60,3,2021-06-08 16:06:44.6090,1623161204.609311,1.0511314868927002,1.0239200592041016,-3.0950591564178467,0.7294616401195526,0.8810271620750427,-0.2843627631664276
1,2021-06-08 16:06:42.2090,00:35,60,3,2021-06-08 16:06:44.6240,1623161204.623769,1.0162678956985474,1.0436102151870728,-3.2267937660217285,0.7461089789867401,1.045013427734375,-0.3217926621437073
1,2021-06-08 16:06:42.2090,00:35,60,3,2021-06-08 16:06:44.6400,1623161204.639745,1.0806567668914795,1.1135221719741821,-3.337002992630005,0.7558440864086151,1.1497802138328552,-0.3490295708179474
1,2021-06-08 16:06:42.2090,00:35,60,3,2021-06-08 16:06:44.6540,1623161204.65385,1.2036596536636353,1.1518000364303589,-3.443596839904785,0.7869110107421875,1.270614504814148,-0.3681793510913849
1,2021-06-08 16:06:42.2090,00:35,60,3,2021-06-08 16:06:44.6690,1623161204.669269,1.2572382688522339,1.116837739944458,-3.5906410217285156,0.7930908203125,1.2803801894187927,-0.3722382187843323
1,2021-06-08 16:06:42.2090,00:35,60,3,2021-06-08 16:06:44.6840,1623161204.683825,1.3134013414382935,1.0370135307312012,-3.7262470722198486,0.7730865478515625,1.2579192519187927,-0.3516083359718323
1,2021-06-08 16:06:42.2090,00:35,60,3,2021-06-08 16:06:44.6990,1623161204.6994128,1.4264241456985474,0.9914668798446655,-3.8644134998321533,0.7481842041015625,1.2529295682907104,-0.3501740097999573
1,2021-06-08 16:06:42.2090,00:35,60,3,2021-06-08 16:06:44.7140,1623161204.7140589,1.437057375907898,0.9193149209022522,-4.017270565032959,0.7169341892004013,1.2586363554000854,-0.302337646484375
1,2021-06-08 16:06:42.2090,00:35,60,3,2021-06-08 16:06:44.7290,1623161204.729342,1.3517402410507202,0.7887625098228455,-4.177108287811279,0.707916259765625,1.2404021620750427,-0.268218994140625
1,2021-06-08 16:06:42.2090,00:35,60,3,2021-06-08 16:06:44.7440,1623161204.744034,1.1702719926834106,0.7123731970787048,-4.3496527671813965,0.6582641899585724,1.1976317763328552,-0.21177679300308228
1,2021-06-08 16:06:42.2090,00:35,60,3,2021-06-08 16:06:44.7590,1623161204.759388,1.0010830163955688,0.6736886501312256,-4.452874660491943,0.6207885667681694,1.2129058241844177,-0.17327874898910522
1,2021-06-08 16:06:42.2090,00:35,60,3,2021-06-08 16:06:44.7740,1623161204.773942,0.8815555572509766,0.6433983445167542,-4.563061237335205,0.578521765768528,1.2312620878219604,-0.1622467041015625
1,2021-06-08 16:06:42.2090,00:35,60,3,2021-06-08 16:06:44.7890,1623161204.789407,0.6874426007270813,0.6271594762802124,-4.606984615325928,0.5516815423034132,1.191986083984375,-0.1521148681640625
1,2021-06-08 16:06:42.2090,00:35,60,3,2021-06-08 16:06:44.8040,1623161204.803972,0.4901646673679352,0.6953766345977783,-4.584685325622559,0.4804687611758709,1.0728911757469177,-0.14665228128433228
1,2021-06-08 16:06:42.2090,00:35,60,3,2021-06-08 16:06:44.8200,1623161204.819594,0.40713784098625183,0.7845677733421326,-4.532840251922607,0.4327392652630806,1.0392608046531677,-0.120086669921875
1,2021-06-08 16:06:42.2090,00:35,60,3,2021-06-08 16:06:44.8340,1623161204.8340402,0.42685666680336,0.8320931792259216,-4.423394680023193,0.3927002549171448,1.0676268935203552,0.0165863037109375
1,2021-06-08 16:06:42.2090,00:35,60,3,2021-06-08 16:06:44.8500,1623161204.849639,0.4560708701610565,0.897587776184082,-4.342752933502197,0.3737945705652237,1.0693206191062927,-0.019958555698394775
1,2021-06-08 16:06:42.2090,00:35,60,3,2021-06-08 16:06:44.8640,1623161204.864095,0.6366048455238342,0.9353865385055542,-4.256607532501221,0.3240356594324112,1.060272216796875,-0.13092046976089478
1,2021-06-08 16:06:42.2090,00:35,60,3,2021-06-08 16:06:44.8800,1623161204.879591,0.46001702547073364,0.9497220516204834,-4.135515213012695,0.3125763535499573,1.0493926405906677,-0.15299993753433228
1,2021-06-08 16:06:42.2090,00:35,60,3,2021-06-08 16:06:44.8940,1623161204.894139,0.12639376521110535,0.9440186619758606,-4.02913761138916,0.2761535942554474,0.9466704726219177,-0.19757080078125
1,2021-06-08 16:06:42.2090,00:35,60,3,2021-06-08 16:06:44.9100,1623161204.909679,-0.06252080947160721,1.0206243991851807,-3.838062286376953,0.24334722757339478,0.9388731718063354,-0.1986541748046875
1,2021-06-08 16:06:42.2090,00:35,60,3,2021-06-08 16:06:44.9240,1623161204.924165,-0.42441195249557495,1.1247586011886597,-3.67315936088562,0.1560669243335724,0.8975982069969177,-0.11311346292495728
1,2021-06-08 16:06:42.2090,00:35,60,3,2021-06-08 16:06:44.9400,1623161204.939714,-0.8356295824050903,1.2446635961532593,-3.488860845565796,0.1432342827320099,0.8552245497703552,-0.1419219970703125
1,2021-06-08 16:06:42.2090,00:35,60,3,2021-06-08 16:06:44.9540,1623161204.954175,-1.5495631694793701,1.3382508754730225,-3.2707228660583496,0.10415655374526978,0.7275084853172302,-0.12139886617660522
1,2021-06-08 16:06:42.2090,00:35,60,3,2021-06-08 16:06:44.9700,1623161204.969917,-2.599766492843628,1.4675750732421875,-3.1358044147491455,0.05627444386482239,0.7377318739891052,-0.1096954345703125
1,2021-06-08 16:06:42.2090,00:35,60,3,2021-06-08 16:06:44.9840,1623161204.984209,-3.1864380836486816,1.5440961122512817,-2.9222705364227295,-0.020706117153167725,0.8293304443359375,-0.158538818359375
1,2021-06-08 16:06:42.2090,00:35,60,3,2021-06-08 16:06:45.0000,1623161204.99979,-3.178642511367798,1.5826643705368042,-2.618206739425659,-0.04872128367424011,0.8170623183250427,-0.16064459085464478
1,2021-06-08 16:06:42.2090,00:35,60,3,2021-06-08 16:06:45.0140,1623161205.0143409,-3.3076083660125732,1.6411867141723633,-2.3381574153900146,-0.15090933442115784,0.7489013075828552,-0.13850396871566772
1,2021-06-08 16:06:42.2090,00:35,60,3,2021-06-08 16:06:45.0300,1623161205.02982,-3.641704797744751,1.6313847303390503,-2.0469553470611572,-0.19192498922348022,0.74639892578125,-0.16241455078125
1,2021-06-08 16:06:42.2090,00:35,60,3,2021-06-08 16:06:45.0450,1623161205.044554,-3.7799980640411377,1.600772738456726,-1.7657008171081543,-0.24353021383285522,0.6374053359031677,-0.21466064453125
1,2021-06-08 16:06:42.2090,00:35,60,3,2021-06-08 16:06:45.0600,1623161205.0599132,-3.8777503967285156,1.5704768896102905,-1.5702850818634033,-0.2859954237937927,0.6248320937156677,-0.2022857964038849
1,2021-06-08 16:06:42.2090,00:35,60,3,2021-06-08 16:06:45.0740,1623161205.074333,-3.579746723175049,1.5021708011627197,-1.3990105390548706,-0.3736266791820526,0.7463683485984802,-0.1635894775390625
1,2021-06-08 16:06:42.2090,00:35,60,3,2021-06-08 16:06:45.0900,1623161205.089859,-3.4963603019714355,1.5515024662017822,-1.269979476928711,-0.4268035292625427,0.8117827773094177,-0.082733154296875
1,2021-06-08 16:06:42.2090,00:35,60,3,2021-06-08 16:06:45.1040,1623161205.104342,-3.285651683807373,1.627963662147522,-1.1530356407165527,-0.5578764975070953,0.830276370048523,0.04649361968040466
1,2021-06-08 16:06:42.2090,00:35,60,3,2021-06-08 16:06:45.1200,1623161205.11993,-3.1913561820983887,1.781131386756897,-1.1724094152450562,-0.6282958686351776,0.8467406630516052,0.07138055562973022
1,2021-06-08 16:06:42.2090,00:35,60,3,2021-06-08 16:06:45.1350,1623161205.1346998,-2.9975192546844482,1.807227611541748,-1.1716405153274536,-0.7139129042625427,0.817413330078125,0.11787411570549011
1,2021-06-08 16:06:42.2090,00:35,60,3,2021-06-08 16:06:45.1500,1623161205.149987,-2.701230764389038,1.86930513381958,-1.1488245725631714,-0.762618899345398,0.8889921307563782,0.1446533501148224
1,2021-06-08 16:06:42.2090,00:35,60,3,2021-06-08 16:06:45.1640,1623161205.16447,-2.315009832382202,1.996551752090454,-1.244985818862915,-0.8510284423828125,1.0191956758499146,0.1403503119945526
1,2021-06-08 16:06:42.2090,00:35,60,3,2021-06-08 16:06:45.1800,1623161205.180015,-2.152362823486328,2.135334014892578,-1.4164958000183105,-0.8621062636375427,1.0479277968406677,0.1587677001953125
1,2021-06-08 16:06:42.2090,00:35,60,3,2021-06-08 16:06:45.1940,1623161205.1944509,-1.9672576189041138,2.279738664627075,-1.5501164197921753,-0.7843474745750427,0.951385498046875,0.1966095268726349
1,2021-06-08 16:06:42.2090,00:35,60,3,2021-06-08 16:06:45.2100,1623161205.210144,-1.7438527345657349,2.363430976867676,-1.652131199836731,-0.7222900986671448,0.9109039902687073,0.2108307182788849
1,2021-06-08 16:06:42.2090,00:35,60,3,2021-06-08 16:06:45.2250,1623161205.224523,-1.7554503679275513,2.470320224761963,-1.723911166191101,-0.6722259521484375,0.9129790663719177,0.2680816054344177
1,2021-06-08 16:06:42.2090,00:35,60,3,2021-06-08 16:06:45.2400,1623161205.2402859,-1.7294267416000366,2.4953866004943848,-1.8211314678192139,-0.657729983329773,0.8949889540672302,0.2218933403491974
1,2021-06-08 16:06:42.2090,00:35,60,3,2021-06-08 16:06:45.2550,1623161205.254644,-1.7097151279449463,2.5191924571990967,-1.9039560556411743,-0.6222228407859802,0.8448486328125,0.2095642387866974
1,2021-06-08 16:06:42.2090,00:35,60,3,2021-06-08 16:06:45.2700,1623161205.270154,-1.6438484191894531,2.5441184043884277,-1.9233880043029785,-0.6071166396141052,0.854461669921875,0.2178345024585724
1,2021-06-08 16:06:42.2090,00:35,60,3,2021-06-08 16:06:45.2850,1623161205.284735,-1.4375181198120117,2.4806196689605713,-1.9775755405426025,-0.540664553642273,0.8811034560203552,0.1688079833984375
1,2021-06-08 16:06:42.2090,00:35,60,3,2021-06-08 16:06:45.3000,1623161205.300348,-1.2697041034698486,2.346311092376709,-1.9841285943984985,-0.4956969618797302,0.8467559814453125,0.1345367133617401
1,2021-06-08 16:06:42.2090,00:35,60,3,2021-06-08 16:06:45.3180,1623161205.317882,-1.2512729167938232,2.1955971717834473,-1.9585126638412476,-0.4394072890281677,0.6580963134765625,0.09405517578125
1,2021-06-08 16:06:42.2090,00:35,60,3,2021-06-08 16:06:45.3310,1623161205.330597,-1.4681472778320312,2.0526297092437744,-1.8678312301635742,-0.4363555908203125,0.5940398573875427,0.10491943359375
1,2021-06-08 16:06:42.2090,00:35,60,3,2021-06-08 16:06:45.3450,1623161205.344746,-1.3664937019348145,1.9167815446853638,-1.7928884029388428,-0.4572753310203552,0.5971221923828125,0.0640411376953125
1,2021-06-08 16:06:42.2090,00:35,60,3,2021-06-08 16:06:45.3600,1623161205.3603702,-1.2203785181045532,1.7835705280303955,-1.7332446575164795,-0.4657592177391052,0.6466674208641052,0.05384829640388489
1,2021-06-08 16:06:42.2090,00:35,60,3,2021-06-08 16:06:45.3760,1623161205.375606,-1.0992169380187988,1.658241868019104,-1.6741334199905396,-0.4465331435203552,0.66375732421875,0.0216064453125
1,2021-06-08 16:06:42.2090,00:35,60,3,2021-06-08 16:06:45.3910,1623161205.391154,-0.9397464990615845,1.4555479288101196,-1.5683374404907227,-0.4130248427391052,0.6141662001609802,-0.012908935546875
1,2021-06-08 16:06:42.2090,00:35,60,3,2021-06-08 16:06:45.4050,1623161205.4051828,-1.0008550882339478,1.303314447402954,-1.5203887224197388,-0.3971251845359802,0.5828705430030823,-0.0036925673484802246
1,2021-06-08 16:06:42.2090,00:35,60,3,2021-06-08 16:06:45.4200,1623161205.420414,-0.917502224445343,1.1604979038238525,-1.451307773590088,-0.4185180068016052,0.5781707763671875,-0.0281524658203125
1,2021-06-08 16:06:42.2090,00:35,60,3,2021-06-08 16:06:45.4350,1623161205.434875,-0.8901150822639465,1.1123138666152954,-1.330153465270996,-0.5225220322608948,0.5415496826171875,-0.05482485890388489
1,2021-06-08 16:06:42.2090,00:35,60,3,2021-06-08 16:06:45.4510,1623161205.450512,-0.9542548656463623,1.0573456287384033,-1.225415825843811,-0.5624236464500427,0.5331725478172302,-0.064361572265625
1,2021-06-08 16:06:42.2090,00:35,60,3,2021-06-08 16:06:45.4650,1623161205.4648728,-0.9281774759292603,0.9678376913070679,-1.1203445196151733,-0.6153106093406677,0.6338195204734802,-0.09698483347892761
1,2021-06-08 16:06:42.2090,00:35,60,3,2021-06-08 16:06:45.4810,1623161205.480609,-0.8741499781608582,0.827289879322052,-1.024277687072754,-0.640625,0.6380615234375,-0.1654052436351776
1,2021-06-08 16:06:42.2090,00:35,60,3,2021-06-08 16:06:45.4950,1623161205.495044,-0.8853448629379272,0.6814048886299133,-0.9246342182159424,-0.6982421278953552,0.586501955986023,-0.2181243896484375
1,2021-06-08 16:06:42.2090,00:35,60,3,2021-06-08 16:06:45.5110,1623161205.5108352,-0.9770042300224304,0.5592406392097473,-0.8475567102432251,-0.7277831435203552,0.5866546630859375,-0.216033935546875
1,2021-06-08 16:06:42.2090,00:35,60,3,2021-06-08 16:06:45.5250,1623161205.525034,-1.0555758476257324,0.5244624018669128,-0.8039663434028625,-0.818328857421875,0.6748657822608948,-0.1923522651195526
1,2021-06-08 16:06:42.2090,00:35,60,3,2021-06-08 16:06:45.5400,1623161205.540477,-1.187099575996399,0.547537088394165,-0.7886505126953125,-0.8539580702781677,0.6947174072265625,-0.1820221245288849
1,2021-06-08 16:06:42.2090,00:35,60,3,2021-06-08 16:06:45.5550,1623161205.55475,-1.2148630619049072,0.5795589089393616,-0.7906926274299622,-0.86737060546875,0.6928558349609375,-0.1955718994140625
1,2021-06-08 16:06:42.2090,00:35,60,3,2021-06-08 16:06:45.5700,1623161205.570267,-1.0398427248001099,0.5984327793121338,-0.7861740589141846,-0.8526915907859802,0.6920012831687927,-0.2264404296875
1,2021-06-08 16:06:42.2090,00:35,60,3,2021-06-08 16:06:45.5850,1623161205.58498,-0.8326694965362549,0.6109288334846497,-0.785994827747345,-0.804656982421875,0.6308136582374573,-0.2694244682788849
1,2021-06-08 16:06:42.2090,00:35,60,3,2021-06-08 16:06:45.6010,1623161205.600594,-0.7249987721443176,0.5830428600311279,-0.8489053249359131,-0.8050535917282104,0.5626067519187927,-0.300445556640625
1,2021-06-08 16:06:42.2090,00:35,60,3,2021-06-08 16:06:45.6150,1623161205.61483,-0.879338800907135,0.566750705242157,-0.8705304265022278,-0.8120116591453552,0.4892119765281677,-0.2694549560546875
1,2021-06-08 16:06:42.2090,00:35,60,3,2021-06-08 16:06:45.6310,1623161205.630517,-1.052961826324463,0.5704426765441895,-0.8970574140548706,-0.8306273818016052,0.4957885146141052,-0.2630157470703125
1,2021-06-08 16:06:42.2090,00:35,60,3,2021-06-08 16:06:45.6450,1623161205.64487,-1.040555477142334,0.5929639339447021,-0.8976081609725952,-0.8922271132469177,0.4509735107421875,-0.2628631591796875
1,2021-06-08 16:06:42.2090,00:35,60,3,2021-06-08 16:06:45.6600,1623161205.660368,-1.1171375513076782,0.6464799046516418,-0.95478755235672,-0.9206388592720032,0.4236754775047302,-0.2463836669921875
1,2021-06-08 16:06:42.2090,00:35,60,3,2021-06-08 16:06:45.6750,1623161205.67491,-1.2566059827804565,0.6716728806495667,-1.0305336713790894,-0.9623412489891052,0.3771666884422302,-0.240447998046875
1,2021-06-08 16:06:42.2090,00:35,60,3,2021-06-08 16:06:45.6900,1623161205.6903028,-1.3755995035171509,0.7168315649032593,-1.0436593294143677,-0.9798430800437927,0.3566436171531677,-0.2323913276195526
1,2021-06-08 16:06:42.2090,00:35,60,3,2021-06-08 16:06:45.7050,1623161205.704893,-1.1896531581878662,0.8112995028495789,-1.0964808464050293,-1.0202483534812927,0.3693695068359375,-0.2413025200366974
1,2021-06-08 16:06:42.2090,00:35,60,3,2021-06-08 16:06:45.7200,1623161205.720426,-1.1579631567001343,0.9046320915222168,-1.2120369672775269,-1.0358733534812927,0.4186400771141052,-0.14605706930160522
1,2021-06-08 16:06:42.2090,00:35,60,3,2021-06-08 16:06:45.7350,1623161205.734962,-0.967396080493927,0.9523229002952576,-1.2224682569503784,-1.0572356581687927,0.3156890273094177,-0.2916564643383026
1,2021-06-08 16:06:42.2090,00:35,60,3,2021-06-08 16:06:45.7500,1623161205.7504559,-0.8617748022079468,0.9521074891090393,-1.3036075830459595,-1.0408477783203125,0.266876220703125,-0.30072021484375
1,2021-06-08 16:06:42.2090,00:35,60,3,2021-06-08 16:06:45.7650,1623161205.764965,-0.3981870710849762,0.9510968327522278,-1.3513340950012207,-1.0167693495750427,0.3001861572265625,-0.3619689643383026
1,2021-06-08 16:06:42.2090,00:35,60,3,2021-06-08 16:06:45.7800,1623161205.78049,-0.17041948437690735,0.941369354724884,-1.3596510887145996,-1.0077362656593323,0.2809143662452698,-0.3501434326171875
1,2021-06-08 16:06:42.2090,00:35,60,3,2021-06-08 16:06:45.7950,1623161205.795054,-0.1634332239627838,0.9328770637512207,-1.2904914617538452,-1.0258178114891052,0.1403503119945526,-0.242034912109375
1,2021-06-08 16:06:42.2090,00:35,60,3,2021-06-08 16:06:45.8100,1623161205.810456,-0.33207225799560547,0.954817533493042,-1.1074641942977905,-1.0199738144874573,0.10810858011245728,-0.19403082132339478
1,2021-06-08 16:06:42.2090,00:35,60,3,2021-06-08 16:06:45.8250,1623161205.825008,-0.25648388266563416,0.7677269577980042,-0.9061265587806702,-0.88751220703125,0.03869625926017761,-0.3028716742992401
1,2021-06-08 16:06:42.2090,00:35,60,3,2021-06-08 16:06:45.8410,1623161205.8405561,-0.12940599024295807,0.5279332995414734,-0.7487257122993469,-0.8600462675094604,0.025894105434417725,-0.2998961806297302
1,2021-06-08 16:06:42.2090,00:35,60,3,2021-06-08 16:06:45.8550,1623161205.855105,-0.04607541486620903,0.5131434202194214,-0.6012569069862366,-0.9387969374656677,0.011077851057052612,-0.23388671875
1,2021-06-08 16:06:42.2090,00:35,60,3,2021-06-08 16:06:45.8710,1623161205.870623,-0.1837320774793625,0.5511144995689392,-0.3843403160572052,-0.936630129814148,0.028121918439865112,-0.1795806586742401
1,2021-06-08 16:06:42.2090,00:35,60,3,2021-06-08 16:06:45.8850,1623161205.885282,-0.6323307752609253,0.5911703109741211,-0.2669880986213684,-0.885772705078125,0.029022186994552612,-0.1525268852710724
1,2021-06-08 16:06:42.2090,00:35,60,3,2021-06-08 16:06:45.9010,1623161205.900814,-0.68704754114151,0.6247367858886719,-0.19071146845817566,-0.8476715087890625,0.09521481394767761,-0.1411590576171875
1,2021-06-08 16:06:42.2090,00:35,60,3,2021-06-08 16:06:45.9150,1623161205.915337,-0.3735886812210083,0.6152178645133972,-0.04709596931934357,-0.8994902968406677,0.07626339793205261,-0.23760986328125
1,2021-06-08 16:06:42.2090,00:35,60,3,2021-06-08 16:06:45.9310,1623161205.930764,0.5734977126121521,0.5206287503242493,0.11743704974651337,-0.8989105820655823,0.028305113315582275,-0.2986908257007599
1,2021-06-08 16:06:42.2090,00:35,60,3,2021-06-08 16:06:45.9450,1623161205.945321,1.8985079526901245,0.48566946387290955,0.1881818026304245,-0.9170226454734802,0.1067352294921875,-0.2622985541820526
1,2021-06-08 16:06:42.2090,00:35,60,3,2021-06-08 16:06:45.9610,1623161205.960813,3.2331788539886475,0.584230363368988,0.23895761370658875,-0.9535827040672302,0.1311798095703125,-0.1766204535961151
1,2021-06-08 16:06:42.2090,00:35,60,3,2021-06-08 16:06:45.9750,1623161205.975399,4.246326446533203,0.7375677227973938,0.22022680938243866,-0.9698027968406677,0.2471160590648651,-0.10595700144767761
1,2021-06-08 16:06:42.2090,00:35,60,3,2021-06-08 16:06:45.9910,1623161205.990927,3.8749845027923584,0.9365213513374329,0.1150766909122467,-1.0123443603515625,0.2684631049633026,-0.13235479593276978
1,2021-06-08 16:06:42.2090,00:35,60,3,2021-06-08 16:06:46.0050,1623161206.005427,2.1365981101989746,0.8882787227630615,0.11199328303337097,-0.9994354248046875,-0.07223513722419739,-0.259033203125
1,2021-06-08 16:06:42.2090,00:35,60,3,2021-06-08 16:06:46.0210,1623161206.021049,0.05960291624069214,0.7417324185371399,0.030339164659380913,-0.9369964003562927,-0.0692291259765625,-0.32391357421875
1,2021-06-08 16:06:42.2090,00:35,60,3,2021-06-08 16:06:46.0400,1623161206.040152,-0.9447489380836487,0.6818975806236267,-0.03888171538710594,-0.9522552490234375,0.0205841064453125,-0.4256743788719177
1,2021-06-08 16:06:42.2090,00:35,60,3,2021-06-08 16:06:46.0510,1623161206.051148,-1.003522276878357,0.6855974793434143,-0.22917230427265167,-0.9688262939453125,0.1661376655101776,-0.2876739501953125
1,2021-06-08 16:06:42.2090,00:35,60,3,2021-06-08 16:06:46.0660,1623161206.0655031,0.32657474279403687,0.7350236177444458,-0.4727058410644531,-1.0357208251953125,0.55035400390625,-0.432769775390625
1,2021-06-08 16:06:42.2090,00:35,60,3,2021-06-08 16:06:46.0810,1623161206.081026,1.8028297424316406,0.7679163217544556,-0.7230185270309448,-1.0390319228172302,0.6462554931640625,-0.507415771484375
1,2021-06-08 16:06:42.2090,00:35,60,3,2021-06-08 16:06:46.0960,1623161206.09556,2.258432149887085,0.842897355556488,-0.9267330169677734,-0.9750518202781677,0.5857086181640625,-0.302825927734375
1,2021-06-08 16:06:42.2090,00:35,60,3,2021-06-08 16:06:46.1110,1623161206.1111069,2.169799566268921,0.8133370876312256,-1.0213513374328613,-0.9369811415672302,0.49725341796875,-0.2904204726219177
1,2021-06-08 16:06:42.2090,00:35,60,3,2021-06-08 16:06:46.1260,1623161206.125575,1.5388160943984985,0.6866393089294434,-1.0374486446380615,-0.8600157499313354,0.044998154044151306,-0.4536437392234802
1,2021-06-08 16:06:42.2090,00:35,60,3,2021-06-08 16:06:46.1410,1623161206.141173,1.1501885652542114,0.6583160758018494,-1.0878068208694458,-0.8265990614891052,-0.018524199724197388,-0.3663939833641052
1,2021-06-08 16:06:42.2090,00:35,60,3,2021-06-08 16:06:46.1560,1623161206.1556,2.1820240020751953,0.7744125723838806,-1.0923949480056763,-0.8594207763671875,0.1591644436120987,-0.291107177734375
1,2021-06-08 16:06:42.2090,00:35,60,3,2021-06-08 16:06:46.1710,1623161206.1711779,3.468642473220825,1.033673644065857,-1.0447739362716675,-0.908355712890625,0.2804412841796875,-0.2117919921875
1,2021-06-08 16:06:42.2090,00:35,60,3,2021-06-08 16:06:46.1860,1623161206.185641,4.756846904754639,1.1434930562973022,-0.9843035936355591,-0.82513427734375,0.2600402906537056,-0.2622833251953125
1,2021-06-08 16:06:42.2090,00:35,60,3,2021-06-08 16:06:46.2010,1623161206.201264,4.976151943206787,1.0748854875564575,-1.0316197872161865,-0.7353820204734802,0.0630188100039959,-0.316497802734375
1,2021-06-08 16:06:42.2090,00:35,60,3,2021-06-08 16:06:46.2160,1623161206.215746,4.536829948425293,0.9532536864280701,-1.129779577255249,-0.7128448486328125,-0.20845029689371586,-0.279388427734375
1,2021-06-08 16:06:42.2090,00:35,60,3,2021-06-08 16:06:46.2310,1623161206.2312598,4.028096675872803,0.9565730690956116,-1.2501035928726196,-0.7499694228172302,-0.22161861509084702,-0.3062438368797302
1,2021-06-08 16:06:42.2090,00:35,60,3,2021-06-08 16:06:46.2460,1623161206.245714,3.7366080284118652,1.0010465383529663,-1.3218220472335815,-0.8073119521141052,-0.16625972092151642,-0.3841094374656677
1,2021-06-08 16:06:42.2090,00:35,60,3,2021-06-08 16:06:46.2610,1623161206.2612429,3.503310441970825,0.9673250317573547,-1.3172643184661865,-0.7940673828125,-0.1504058688879013,-0.3985443115234375
1,2021-06-08 16:06:42.2090,00:35,60,3,2021-06-08 16:06:46.2760,1623161206.275783,3.113924264907837,0.7628049254417419,-1.188437581062317,-0.7003174424171448,-0.258209228515625,-0.4490814208984375
1,2021-06-08 16:06:42.2090,00:35,60,3,2021-06-08 16:06:46.2910,1623161206.2914429,2.497830390930176,0.5466936826705933,-1.0327470302581787,-0.6642608642578125,-0.4013976454734802,-0.4492186903953552
1,2021-06-08 16:06:42.2090,00:35,60,3,2021-06-08 16:06:46.3060,1623161206.305757,2.109083652496338,0.46517056226730347,-1.0851624011993408,-0.6598663330078125,-0.5422210395336151,-0.311431884765625
1,2021-06-08 16:06:42.2090,00:35,60,3,2021-06-08 16:06:46.3210,1623161206.3213248,2.6920268535614014,0.6293720602989197,-1.0802417993545532,-0.660568118095398,-0.3569640517234802,-0.3306273818016052
1,2021-06-08 16:06:42.2090,00:35,60,3,2021-06-08 16:06:46.3360,1623161206.335886,3.219290018081665,0.9056795239448547,-0.9064821004867554,-0.70330810546875,-0.221038818359375,-0.3516388535499573
1,2021-06-08 16:06:42.2090,00:35,60,3,2021-06-08 16:06:46.3510,1623161206.351389,3.102994203567505,0.9080001711845398,-0.5727720260620117,-0.666900634765625,-0.3917693793773651,-0.3290252685546875
1,2021-06-08 16:06:42.2090,00:35,60,3,2021-06-08 16:06:46.3660,1623161206.3658051,2.648143768310547,0.8050684928894043,-0.32888132333755493,-0.573577880859375,-0.8000487983226776,-0.25946044921875
1,2021-06-08 16:06:42.2090,00:35,60,3,2021-06-08 16:06:46.3810,1623161206.38137,2.4802937507629395,0.8950788378715515,-0.10398721694946289,-0.5465851426124573,-0.7715606391429901,-0.2105865478515625
1,2021-06-08 16:06:42.2090,00:35,60,3,2021-06-08 16:06:46.3960,1623161206.395965,2.9849467277526855,1.2245889902114868,0.1961507648229599,-0.5390167236328125,-0.44758594036102295,-0.11883538961410522
1,2021-06-08 16:06:42.2090,00:35,60,3,2021-06-08 16:06:46.4110,1623161206.411408,3.4085991382598877,1.6129553318023682,0.4711053669452667,-0.523406982421875,-0.4046172499656677,-0.046783506870269775
1,2021-06-08 16:06:42.2090,00:35,60,3,2021-06-08 16:06:46.4260,1623161206.425902,3.1580562591552734,1.831513524055481,0.8039440512657166,-0.4537353515625,-0.4626464247703552,-0.03558349609375
1,2021-06-08 16:06:42.2090,00:35,60,3,2021-06-08 16:06:46.4410,1623161206.441484,2.5263912677764893,2.0138280391693115,1.2710380554199219,-0.4528045058250427,-0.598403811454773,-0.058807373046875
1,2021-06-08 16:06:42.2090,00:35,60,3,2021-06-08 16:06:46.4560,1623161206.455943,1.7015109062194824,2.2442736625671387,1.7391194105148315,-0.5269774794578552,-0.6415099501609802,-0.060699462890625
1,2021-06-08 16:06:42.2090,00:35,60,3,2021-06-08 16:06:46.4710,1623161206.471483,1.1587311029434204,2.402967929840088,2.0821075439453125,-0.509124755859375,-0.6026152968406677,-0.0749359130859375
1,2021-06-08 16:06:42.2090,00:35,60,3,2021-06-08 16:06:46.4860,1623161206.486062,0.7221935987472534,2.4708399772644043,2.48746919631958,-0.394683837890625,-0.4452361464500427,-0.19268798828125
1,2021-06-08 16:06:42.2090,00:35,60,3,2021-06-08 16:06:46.5020,1623161206.501519,0.22241006791591644,2.4644267559051514,2.8896100521087646,-0.3672943115234375,-0.3824920058250427,-0.2598876953125
1,2021-06-08 16:06:42.2090,00:35,60,3,2021-06-08 16:06:46.5160,1623161206.516047,-0.3855224847793579,2.4452412128448486,3.3530876636505127,-0.4179992079734802,-0.2928923964500427,-0.3903350234031677
1,2021-06-08 16:06:42.2090,00:35,60,3,2021-06-08 16:06:46.5320,1623161206.53159,-1.0685062408447266,2.3615524768829346,3.8681766986846924,-0.43878173828125,-0.27334582805633545,-0.4202269911766052
1,2021-06-08 16:06:42.2090,00:35,60,3,2021-06-08 16:06:46.5460,1623161206.546424,-1.516735553741455,2.3739147186279297,4.386715412139893,-0.5430297255516052,-0.14083853363990784,-0.4887694716453552
1,2021-06-08 16:06:42.2090,00:35,60,3,2021-06-08 16:06:46.5620,1623161206.561641,-1.7817487716674805,2.369436502456665,4.8787102699279785,-0.5751953125,-0.07328793406486511,-0.4508514404296875
1,2021-06-08 16:06:42.2090,00:35,60,3,2021-06-08 16:06:46.5760,1623161206.576182,-1.9645792245864868,2.4102354049682617,5.288899898529053,-0.6475219130516052,-0.011855989694595337,-0.3678130507469177
1,2021-06-08 16:06:42.2090,00:35,60,3,2021-06-08 16:06:46.5920,1623161206.591691,-2.2125566005706787,2.4431097507476807,5.679630756378174,-0.6337584853172302,0.03375247120857239,-0.3408660888671875
1,2021-06-08 16:06:42.2090,00:35,60,3,2021-06-08 16:06:46.6060,1623161206.6061358,-2.582700490951538,2.462559461593628,6.053892612457275,-0.5735625624656677,0.07693485915660858,-0.3040924072265625
1,2021-06-08 16:06:42.2090,00:35,60,3,2021-06-08 16:06:46.6220,1623161206.621733,-2.979855537414551,2.5553574562072754,6.407367706298828,-0.5415496528148651,0.05659487843513489,-0.2984771728515625
1,2021-06-08 16:06:42.2090,00:35,60,3,2021-06-08 16:06:46.6360,1623161206.6361861,-3.4622883796691895,2.5807712078094482,6.707146644592285,-0.3926086127758026,0.1481628604233265,-0.4470672011375427
1,2021-06-08 16:06:42.2090,00:35,60,3,2021-06-08 16:06:46.6520,1623161206.6518831,-3.7686660289764404,2.431711196899414,6.971452236175537,-0.2760772407054901,0.2646026834845543,-0.525848388671875
1,2021-06-08 16:06:42.2090,00:35,60,3,2021-06-08 16:06:46.6660,1623161206.666208,-3.949409008026123,2.2580034732818604,7.178329944610596,-0.16818231344223022,0.4031982719898224,-0.6644287109375
1,2021-06-08 16:06:42.2090,00:35,60,3,2021-06-08 16:06:46.6820,1623161206.681827,-3.574822187423706,2.001462936401367,7.4643683433532715,-0.10841366648674011,0.40191650390625,-0.694183349609375
1,2021-06-08 16:06:42.2090,00:35,60,3,2021-06-08 16:06:46.6960,1623161206.69632,-2.772334575653076,1.9954644441604614,7.712776184082031,-0.03840634226799011,0.4151306450366974,-0.65496826171875
1,2021-06-08 16:06:42.2090,00:35,60,3,2021-06-08 16:06:46.7120,1623161206.712069,-2.0112245082855225,1.9253215789794922,7.583708763122559,0.045974746346473694,0.554107666015625,-0.751678466796875
1,2021-06-08 16:06:42.2090,00:35,60,3,2021-06-08 16:06:46.7260,1623161206.726334,-1.604297399520874,1.6125694513320923,7.308908939361572,0.2628326714038849,0.8600005805492401,-0.913970947265625
1,2021-06-08 16:06:42.2090,00:35,60,3,2021-06-08 16:06:46.7420,1623161206.741965,-0.8925077319145203,1.4528254270553589,7.248856544494629,0.2439880445599556,0.7790984809398651,-0.89141845703125
1,2021-06-08 16:06:42.2090,00:35,60,3,2021-06-08 16:06:46.7560,1623161206.756332,-0.3844306766986847,1.6530492305755615,7.163707256317139,0.11276247049681842,0.4822234809398651,-0.8835296630859375
1,2021-06-08 16:06:42.2090,00:35,60,3,2021-06-08 16:06:46.7720,1623161206.771873,-0.22541247308254242,1.7006117105484009,6.904276371002197,0.2023468166589737,0.5673217177391052,-0.8747252821922302
1,2021-06-08 16:06:42.2090,00:35,60,3,2021-06-08 16:06:46.7860,1623161206.786368,-0.1952892541885376,1.5135635137557983,6.615537643432617,0.540557861328125,0.902984619140625,-0.881744384765625
1,2021-06-08 16:06:42.2090,00:35,60,3,2021-06-08 16:06:46.8020,1623161206.802113,-0.4252671003341675,1.2520414590835571,6.271401405334473,0.6562652736902237,0.9927520453929901,-0.9339141249656677
1,2021-06-08 16:06:42.2090,00:35,60,3,2021-06-08 16:06:46.8160,1623161206.8164139,-0.6498123407363892,1.0150864124298096,5.878690719604492,0.7461395263671875,1.0032196044921875,-1.0478973388671875
1,2021-06-08 16:06:42.2090,00:35,60,3,2021-06-08 16:06:46.8320,1623161206.831935,-0.8898099660873413,0.8511837720870972,5.504574298858643,0.7719268798828125,1.1079864203929901,-1.0838775038719177
1,2021-06-08 16:06:42.2090,00:35,60,3,2021-06-08 16:06:46.8460,1623161206.846323,-0.9712046980857849,0.7227911949157715,5.157933235168457,0.8077392280101776,1.2175750434398651,-1.1038359999656677
1,2021-06-08 16:06:42.2090,00:35,60,3,2021-06-08 16:06:46.8620,1623161206.862011,-1.12266206741333,0.5610624551773071,4.831801414489746,0.80828857421875,1.2039794921875,-1.0896605849266052
1,2021-06-08 16:06:42.2090,00:35,60,3,2021-06-08 16:06:46.8770,1623161206.876606,-1.3380966186523438,0.4344283640384674,4.642858028411865,0.7839050590991974,1.11785888671875,-1.0367431640625
1,2021-06-08 16:06:42.2090,00:35,60,3,2021-06-08 16:06:46.8920,1623161206.8920121,-1.3122367858886719,0.2923130393028259,4.437540531158447,0.739654541015625,0.9523924887180328,-0.9593200087547302
1,2021-06-08 16:06:42.2090,00:35,60,3,2021-06-08 16:06:46.9060,1623161206.90646,-1.4785559177398682,0.20500315725803375,4.11003303527832,0.722015380859375,0.7880248725414276,-0.8983458876609802
1,2021-06-08 16:06:42.2090,00:35,60,3,2021-06-08 16:06:46.9220,1623161206.922046,-1.4858437776565552,0.1394433230161667,3.8517677783966064,0.7595520615577698,0.8501129150390625,-0.8843841552734375
1,2021-06-08 16:06:42.2090,00:35,60,3,2021-06-08 16:06:46.9370,1623161206.936562,-1.311761498451233,0.12379992008209229,3.69775652885437,0.744415283203125,0.8447875380516052,-0.8578033447265625
1,2021-06-08 16:06:42.2090,00:35,60,3,2021-06-08 16:06:46.9520,1623161206.9521031,-1.2084382772445679,0.18570350110530853,3.5576493740081787,0.6968231201171875,0.7711486518383026,-0.8608703017234802
1,2021-06-08 16:06:42.2090,00:35,60,3,2021-06-08 16:06:46.9670,1623161206.9667149,-1.185612440109253,0.19317713379859924,3.473446846008301,0.65863037109375,0.57208251953125,-0.800811767578125
1,2021-06-08 16:06:42.2090,00:35,60,3,2021-06-08 16:06:46.9820,1623161206.982028,-1.196439504623413,0.15313996374607086,3.3982958793640137,0.6670379638671875,0.4965514838695526,-0.7615203857421875
1,2021-06-08 16:06:42.2090,00:35,60,3,2021-06-08 16:06:46.9970,1623161206.9965758,-1.16057550907135,0.1183747947216034,3.2955434322357178,0.71710205078125,0.4558258056640625,-0.6999053359031677
1,2021-06-08 16:06:42.2090,00:35,60,3,2021-06-08 16:06:47.0120,1623161207.012104,-1.0605565309524536,0.12288592010736465,3.2589643001556396,0.7479095458984375,0.4625854194164276,-0.6537322998046875
1,2021-06-08 16:06:42.2090,00:35,60,3,2021-06-08 16:06:47.0270,1623161207.02662,-1.0174555778503418,0.1749240905046463,3.2398531436920166,0.7640380859375,0.4090575873851776,-0.5409393310546875
1,2021-06-08 16:06:42.2090,00:35,60,3,2021-06-08 16:06:47.0420,1623161207.0423431,-1.078233242034912,0.280685156583786,3.2127420902252197,0.7610778212547302,0.3550719767808914,-0.4873504638671875
1,2021-06-08 16:06:42.2090,00:35,60,3,2021-06-08 16:06:47.0570,1623161207.05669,-1.2440353631973267,0.3787808120250702,3.1896402835845947,0.7698974609375,0.2450256198644638,-0.3855743408203125
1,2021-06-08 16:06:42.2090,00:35,60,3,2021-06-08 16:06:47.0720,1623161207.0721412,-1.3835840225219727,0.4125121533870697,3.1193926334381104,0.7868651747703552,0.20803828537464142,-0.3497161269187927
1,2021-06-08 16:06:42.2090,00:35,60,3,2021-06-08 16:06:47.0870,1623161207.086642,-1.453418493270874,0.4557701647281647,2.993119716644287,0.8166656494140625,0.22328181564807892,-0.3311614990234375
1,2021-06-08 16:06:42.2090,00:35,60,3,2021-06-08 16:06:47.1020,1623161207.1024861,-1.386179804801941,0.5007078051567078,2.818697214126587,0.8314208984375,0.2712402194738388,-0.3314666748046875
1,2021-06-08 16:06:42.2090,00:35,60,3,2021-06-08 16:06:47.1170,1623161207.116763,-1.325777530670166,0.6002684831619263,2.645507574081421,0.868072509765625,0.3828887641429901,-0.3407440185546875
1,2021-06-08 16:06:42.2090,00:35,60,3,2021-06-08 16:06:47.1320,1623161207.132386,-1.371612548828125,0.6811886429786682,2.508371591567993,0.8835448622703552,0.3890838623046875,-0.3302459716796875
1,2021-06-08 16:06:42.2090,00:35,60,3,2021-06-08 16:06:47.1470,1623161207.146743,-1.6049567461013794,0.7811303734779358,2.375739812850952,0.8791808485984802,0.3562621921300888,-0.3099059462547302
1,2021-06-08 16:06:42.2090,00:35,60,3,2021-06-08 16:06:47.1620,1623161207.162241,-1.8826570510864258,0.8965864181518555,2.251650333404541,0.8743896484375,0.3471984714269638,-0.3108367919921875
1,2021-06-08 16:06:42.2090,00:35,60,3,2021-06-08 16:06:47.1770,1623161207.1768079,-2.0731585025787354,1.0471018552780151,2.1658289432525635,0.9029693007469177,0.3585205003619194,-0.3261870741844177
1,2021-06-08 16:06:42.2090,00:35,60,3,2021-06-08 16:06:47.1920,1623161207.192326,-2.163546085357666,1.1891365051269531,2.124594211578369,0.9430084228515625,0.3769988715648651,-0.34393310546875
1,2021-06-08 16:06:42.2090,00:35,60,3,2021-06-08 16:06:47.2070,1623161207.2068439,-2.2008540630340576,1.2149337530136108,2.0767710208892822,1.076629638671875,0.4165801703929901,-0.4004212021827698
1,2021-06-08 16:06:42.2090,00:35,60,3,2021-06-08 16:06:47.2220,1623161207.2223601,-2.2429544925689697,1.0944578647613525,1.9618021249771118,1.152008056640625,0.4400482028722763,-0.4434356689453125
1,2021-06-08 16:06:42.2090,00:35,60,3,2021-06-08 16:06:47.2370,1623161207.236892,-2.264371156692505,0.8472151756286621,1.758252501487732,1.2349852323532104,0.5155792012810707,-0.5002593994140625
1,2021-06-08 16:06:42.2090,00:35,60,3,2021-06-08 16:06:47.2520,1623161207.252448,-2.167100429534912,0.5885865092277527,1.4616496562957764,1.2183532118797302,0.549682579934597,-0.510101318359375
1,2021-06-08 16:06:42.2090,00:35,60,3,2021-06-08 16:06:47.2670,1623161207.26688,-1.895492672920227,0.3775869309902191,1.1199949979782104,1.0855255126953125,0.5446776896715164,-0.437652587890625
1,2021-06-08 16:06:42.2090,00:35,60,3,2021-06-08 16:06:47.2830,1623161207.2829828,-1.5360935926437378,0.3141312599182129,0.753704309463501,1.0105437636375427,0.501251220703125,-0.3879852294921875
1,2021-06-08 16:06:42.2090,00:35,60,3,2021-06-08 16:06:47.2970,1623161207.29735,-1.1720781326293945,0.3613469898700714,0.4118116796016693,0.9148101806640625,0.397369347512722,-0.304443359375
1,2021-06-08 16:06:42.2090,00:35,60,3,2021-06-08 16:06:47.3130,1623161207.312746,-0.842357337474823,0.39005985856056213,0.12400680780410767,0.9033051133155823,0.3395232930779457,-0.2690735459327698
1,2021-06-08 16:06:42.2090,00:35,60,3,2021-06-08 16:06:47.3270,1623161207.327282,-0.5379540920257568,0.4252692461013794,-0.09918659925460815,0.9085540771484375,0.2534179240465164,-0.2431182861328125
1,2021-06-08 16:06:42.2090,00:35,60,3,2021-06-08 16:06:47.3430,1623161207.342706,-0.2877674698829651,0.4668515622615814,-0.275861531496048,0.9211120009422302,0.2415923774242401,-0.23724359273910522
1,2021-06-08 16:06:42.2090,00:35,60,3,2021-06-08 16:06:47.3570,1623161207.357275,-0.045094918459653854,0.4398473799228668,-0.40276193618774414,0.9816131591796875,0.2686919867992401,-0.2450714111328125
1,2021-06-08 16:06:42.2090,00:35,60,3,2021-06-08 16:06:47.3730,1623161207.3728871,0.1457633376121521,0.3605554699897766,-0.4778396189212799,1.0095366835594177,0.2919616177678108,-0.2484588623046875
1,2021-06-08 16:06:42.2090,00:35,60,3,2021-06-08 16:06:47.3870,1623161207.387321,0.20493511855602264,0.2729191184043884,-0.5286064147949219,1.0755462646484375,0.3116149455308914,-0.2722778916358948
1,2021-06-08 16:06:42.2090,00:35,60,3,2021-06-08 16:06:47.4030,1623161207.403242,0.07045859843492508,0.12710356712341309,-0.5677591562271118,1.120086669921875,0.3017425239086151,-0.273406982421875
1,2021-06-08 16:06:42.2090,00:35,60,3,2021-06-08 16:06:47.4180,1623161207.417509,-0.251432329416275,-0.09791330248117447,-0.5952560305595398,1.1937255859375,0.2874602824449539,-0.2574920654296875
1,2021-06-08 16:06:42.2090,00:35,60,3,2021-06-08 16:06:47.4330,1623161207.432965,-0.6468932032585144,-0.35060998797416687,-0.6288419365882874,1.2032622694969177,0.2791594862937927,-0.24908453226089478
1,2021-06-08 16:06:42.2090,00:35,60,3,2021-06-08 16:06:47.4480,1623161207.447617,-1.0350313186645508,-0.5486764907836914,-0.6850410103797913,1.1316680312156677,0.2534789741039276,-0.233673095703125
1,2021-06-08 16:06:42.2090,00:35,60,3,2021-06-08 16:06:47.4640,1623161207.463536,-1.3212491273880005,-0.6639359593391418,-0.7276757955551147,1.0738219618797302,0.23525996506214142,-0.23126220703125
1,2021-06-08 16:06:42.2090,00:35,60,3,2021-06-08 16:06:47.4770,1623161207.477202,-1.4956121444702148,-0.7074032425880432,-0.7750004529953003,0.9759063124656677,0.2011871039867401,-0.2299957275390625
1,2021-06-08 16:06:42.2090,00:35,60,3,2021-06-08 16:06:47.4930,1623161207.4925718,-1.5430922508239746,-0.7158668041229248,-0.819085419178009,0.9463347792625427,0.1908569037914276,-0.229278564453125
1,2021-06-08 16:06:42.2090,00:35,60,3,2021-06-08 16:06:47.5070,1623161207.507055,-1.4770723581314087,-0.7041898965835571,-0.8552412390708923,0.92132568359375,0.1905517280101776,-0.2387847900390625
1,2021-06-08 16:06:42.2090,00:35,60,3,2021-06-08 16:06:47.5230,1623161207.522575,-1.3414264917373657,-0.6613641381263733,-0.8622158169746399,0.9198455214500427,0.2037353217601776,-0.2468414306640625
1,2021-06-08 16:06:42.2090,00:35,60,3,2021-06-08 16:06:47.5370,1623161207.5371451,-1.1607741117477417,-0.6242407560348511,-0.8540521860122681,0.9245606064796448,0.2298278510570526,-0.25509655475616455
1,2021-06-08 16:06:42.2090,00:35,60,3,2021-06-08 16:06:47.5530,1623161207.552808,-0.9867514371871948,-0.6206870079040527,-0.8250622749328613,0.9308319091796875,0.2392120063304901,-0.24578857421875
1,2021-06-08 16:06:42.2090,00:35,60,3,2021-06-08 16:06:47.5670,1623161207.567099,-0.797020673751831,-0.6113569140434265,-0.7717894911766052,0.9384307861328125,0.2580108344554901,-0.24554449319839478
1,2021-06-08 16:06:42.2090,00:35,60,3,2021-06-08 16:06:47.5830,1623161207.582674,-0.6162458062171936,-0.5850584506988525,-0.7009584903717041,0.9564513564109802,0.2708281874656677,-0.2533416152000427
1,2021-06-08 16:06:42.2090,00:35,60,3,2021-06-08 16:06:47.5970,1623161207.597172,-0.44618406891822815,-0.6053738594055176,-0.6243686079978943,1.0061950087547302,0.2920989394187927,-0.2442474365234375
1,2021-06-08 16:06:42.2090,00:35,60,3,2021-06-08 16:06:47.6130,1623161207.612634,-0.30182263255119324,-0.6339799165725708,-0.5440125465393066,1.0149840712547302,0.2960509657859802,-0.24465936422348022
1,2021-06-08 16:06:42.2090,00:35,60,3,2021-06-08 16:06:47.6270,1623161207.627219,-0.16202875971794128,-0.6051756739616394,-0.46918222308158875,0.9899443984031677,0.2863311171531677,-0.2734526991844177
1,2021-06-08 16:06:42.2090,00:35,60,3,2021-06-08 16:06:47.6430,1623161207.64286,-0.008157913573086262,-0.5662125945091248,-0.4044993817806244,0.9775847792625427,0.2769469916820526,-0.2953338623046875
1,2021-06-08 16:06:42.2090,00:35,60,3,2021-06-08 16:06:47.6570,1623161207.65739,0.11740453541278839,-0.5358062386512756,-0.35508495569229126,0.9627074599266052,0.2620086371898651,-0.31549072265625
1,2021-06-08 16:06:42.2090,00:35,60,3,2021-06-08 16:06:47.6730,1623161207.6728559,0.2459227740764618,-0.5036624073982239,-0.3173426389694214,0.9436033964157104,0.2522734999656677,-0.3193358778953552
1,2021-06-08 16:06:42.2090,00:35,60,3,2021-06-08 16:06:47.6870,1623161207.687396,0.3655879497528076,-0.4651104807853699,-0.27956730127334595,0.8931273818016052,0.22991937398910522,-0.3404388427734375
1,2021-06-08 16:06:42.2090,00:35,60,3,2021-06-08 16:06:47.7030,1623161207.703082,0.4834553599357605,-0.40523621439933777,-0.23684459924697876,0.8619384169578552,0.2265777587890625,-0.3431244492530823
1,2021-06-08 16:06:42.2090,00:35,60,3,2021-06-08 16:06:47.7180,1623161207.717639,0.6164493560791016,-0.3722290098667145,-0.1896507292985916,0.8176574110984802,0.2308196723461151,-0.35601806640625
1,2021-06-08 16:06:42.2090,00:35,60,3,2021-06-08 16:06:47.7330,1623161207.732953,0.7394080758094788,-0.3630448281764984,-0.13436803221702576,0.8025970458984375,0.23059076070785522,-0.3677215576171875
1,2021-06-08 16:06:42.2090,00:35,60,3,2021-06-08 16:06:47.7470,1623161207.747473,0.8266922831535339,-0.2986474633216858,-0.05255651846528053,0.7552031874656677,0.23727408051490784,-0.3856963515281677
1,2021-06-08 16:06:42.2090,00:35,60,3,2021-06-08 16:06:47.7630,1623161207.762981,0.920873761177063,-0.2180631458759308,0.0563177689909935,0.7348480224609375,0.23664849996566772,-0.3962555527687073
1,2021-06-08 16:06:42.2090,00:35,60,3,2021-06-08 16:06:47.7780,1623161207.777835,0.9658047556877136,-0.08543745428323746,0.1982450783252716,0.7297972440719604,0.25732412934303284,-0.419677734375
1,2021-06-08 16:06:42.2090,00:35,60,3,2021-06-08 16:06:47.7930,1623161207.7931209,0.9831444025039673,-0.039685145020484924,0.29123786091804504,0.73907470703125,0.2564849555492401,-0.4288330078125
1,2021-06-08 16:06:42.2090,00:35,60,3,2021-06-08 16:06:47.8070,1623161207.807426,0.8757753372192383,-0.05086083337664604,0.31651604175567627,0.7463531494140625,0.2974395751953125,-0.4832764267921448
1,2021-06-08 16:06:42.2090,00:35,60,3,2021-06-08 16:06:47.8230,1623161207.822974,0.7570303082466125,-0.046196840703487396,0.33588388562202454,0.72418212890625,0.3449096083641052,-0.513763427734375
1,2021-06-08 16:06:42.2090,00:35,60,3,2021-06-08 16:06:47.8370,1623161207.8374748,0.5684534907341003,-0.01583813689649105,0.29974132776260376,0.6729278564453125,0.3914947211742401,-0.547637939453125
1,2021-06-08 16:06:42.2090,00:35,60,3,2021-06-08 16:06:47.8540,1623161207.853518,0.3590412139892578,-0.07356162369251251,0.23228719830513,0.666580080986023,0.4203643202781677,-0.5503081679344177
1,2021-06-08 16:06:42.2090,00:35,60,3,2021-06-08 16:06:47.8680,1623161207.8679252,0.24001410603523254,-0.12294861674308777,0.18414071202278137,0.7056883573532104,0.44718924164772034,-0.5363768935203552
1,2021-06-08 16:06:42.2090,00:35,60,3,2021-06-08 16:06:47.8830,1623161207.8833652,0.06496942788362503,-0.15753987431526184,0.06071890518069267,0.7150115966796875,0.4433593451976776,-0.51190185546875
1,2021-06-08 16:06:42.2090,00:35,60,3,2021-06-08 16:06:47.8980,1623161207.897712,-0.2691555619239807,-0.2013866901397705,-0.09644274413585663,0.6979064345359802,0.5078887343406677,-0.4757080078125
1,2021-06-08 16:06:42.2090,00:35,60,3,2021-06-08 16:06:47.9130,1623161207.9131432,-0.5986325740814209,-0.2361995428800583,-0.2693628668785095,0.6748961806297302,0.5412597060203552,-0.4699248671531677
1,2021-06-08 16:06:42.2090,00:35,60,3,2021-06-08 16:06:47.9280,1623161207.927783,-0.9037441611289978,-0.2395031899213791,-0.44001340866088867,0.6231536269187927,0.5514830946922302,-0.5049590468406677
1,2021-06-08 16:06:42.2090,00:35,60,3,2021-06-08 16:06:47.9430,1623161207.9432812,-1.10201895236969,-0.183491051197052,-0.6002891063690186,0.608734130859375,0.5531005561351776,-0.5210266709327698
1,2021-06-08 16:06:42.2090,00:35,60,3,2021-06-08 16:06:47.9580,1623161207.9577389,-1.1788703203201294,-0.10211816430091858,-0.7224528193473816,0.6275177001953125,0.5977630019187927,-0.519866943359375
1,2021-06-08 16:06:42.2090,00:35,60,3,2021-06-08 16:06:47.9730,1623161207.9732962,-1.0769131183624268,-0.024753067642450333,-0.8443664908409119,0.6599730849266052,0.6386565566062927,-0.5162505507469177
1,2021-06-08 16:06:42.2090,00:35,60,3,2021-06-08 16:06:47.9880,1623161207.987788,-0.8250964879989624,0.05837564170360565,-0.9415660500526428,0.7369384169578552,0.7311248779296875,-0.4870758056640625
1,2021-06-08 16:06:42.2090,00:35,60,3,2021-06-08 16:06:48.0030,1623161208.0033832,-0.43246200680732727,0.1398870050907135,-0.9874438047409058,0.7694244384765625,0.7725676894187927,-0.4902038872241974
1,2021-06-08 16:06:42.2090,00:35,60,3,2021-06-08 16:06:48.0180,1623161208.0178518,-0.005485405679792166,0.2270786315202713,-1.021530032157898,0.8032379150390625,0.7109374701976776,-0.4760589897632599
1,2021-06-08 16:06:42.2090,00:35,60,3,2021-06-08 16:06:48.0420,1623161208.0416698,0.29424533247947693,0.2747628092765808,-1.078348994255066,0.81695556640625,0.6596526801586151,-0.4608154594898224
1,2021-06-08 16:06:42.2090,00:35,60,3,2021-06-08 16:06:48.0480,1623161208.0482678,0.6588851809501648,0.33029958605766296,-1.1347289085388184,0.836639404296875,0.6121978163719177,-0.3597564995288849
1,2021-06-08 16:06:42.2090,00:35,60,3,2021-06-08 16:06:48.0630,1623161208.063376,1.061071515083313,0.42783838510513306,-1.2063113451004028,0.8380889296531677,0.626373291015625,-0.3206024467945099
1,2021-06-08 16:06:42.2090,00:35,60,3,2021-06-08 16:06:48.0780,1623161208.077878,1.324815034866333,0.5437543392181396,-1.3070942163467407,0.8628693222999573,0.6607360243797302,-0.2984772324562073
1,2021-06-08 16:06:42.2090,00:35,60,3,2021-06-08 16:06:48.0930,1623161208.093436,1.473486304283142,0.6157352924346924,-1.3949223756790161,0.888671875,0.6431427001953125,-0.2941131889820099
1,2021-06-08 16:06:42.2090,00:35,60,3,2021-06-08 16:06:48.1080,1623161208.107977,1.4968043565750122,0.6337976455688477,-1.5191580057144165,0.920318603515625,0.5547942519187927,-0.2940674424171448
1,2021-06-08 16:06:42.2090,00:35,60,3,2021-06-08 16:06:48.1230,1623161208.123462,1.4393690824508667,0.6177343130111694,-1.6489274501800537,0.9281768798828125,0.5240477919578552,-0.3224945366382599
1,2021-06-08 16:06:42.2090,00:35,60,3,2021-06-08 16:06:48.1380,1623161208.13802,1.4295481443405151,0.6286415457725525,-1.7723308801651,0.9140472412109375,0.5025634169578552,-0.3611755669116974
1,2021-06-08 16:06:42.2090,00:35,60,3,2021-06-08 16:06:48.1540,1623161208.153558,1.525558352470398,0.684953510761261,-1.871183156967163,0.9028472900390625,0.4931334853172302,-0.3745575249195099
1,2021-06-08 16:06:42.2090,00:35,60,3,2021-06-08 16:06:48.1680,1623161208.16799,1.6721677780151367,0.7087646126747131,-1.949413776397705,0.9242553114891052,0.505966067314148,-0.3823089599609375
1,2021-06-08 16:06:42.2090,00:35,60,3,2021-06-08 16:06:48.1830,1623161208.183433,1.8546276092529297,0.7048470973968506,-1.9978508949279785,0.9410399794578552,0.5133208632469177,-0.380859375
1,2021-06-08 16:06:42.2090,00:35,60,3,2021-06-08 16:06:48.1980,1623161208.198022,2.026303768157959,0.6706954836845398,-2.023646593093872,0.95819091796875,0.49594104290008545,-0.389801025390625
1,2021-06-08 16:06:42.2090,00:35,60,3,2021-06-08 16:06:48.2140,1623161208.2137089,2.1365320682525635,0.6290580630302429,-2.028534412384033,0.9592742919921875,0.472564697265625,-0.3958740234375
1,2021-06-08 16:06:42.2090,00:35,60,3,2021-06-08 16:06:48.2280,1623161208.2281132,2.1693880558013916,0.5834631323814392,-2.004596710205078,0.9563140273094177,0.4202423095703125,-0.4040985405445099
1,2021-06-08 16:06:42.2090,00:35,60,3,2021-06-08 16:06:48.2440,1623161208.243639,2.1492087841033936,0.5273252725601196,-1.9635056257247925,0.956573486328125,0.396453857421875,-0.4029083549976349
1,2021-06-08 16:06:42.2090,00:35,60,3,2021-06-08 16:06:48.2580,1623161208.258187,2.0823864936828613,0.47342878580093384,-1.9125862121582031,0.9496002197265625,0.3570708632469177,-0.4040679931640625
1,2021-06-08 16:06:42.2090,00:35,60,3,2021-06-08 16:06:48.2740,1623161208.2736769,1.958227515220642,0.4408348798751831,-1.858113169670105,0.94158935546875,0.35198974609375,-0.4059906303882599
1,2021-06-08 16:06:42.2090,00:35,60,3,2021-06-08 16:06:48.2880,1623161208.288192,1.8621882200241089,0.4386822581291199,-1.7822359800338745,0.92767333984375,0.3641509413719177,-0.4012297987937927
1,2021-06-08 16:06:42.2090,00:35,60,3,2021-06-08 16:06:48.3040,1623161208.3038049,1.8112802505493164,0.4557826817035675,-1.704215168952942,0.9219359755516052,0.369384765625,-0.38897705078125
1,2021-06-08 16:06:42.2090,00:35,60,3,2021-06-08 16:06:48.3180,1623161208.318166,1.7847967147827148,0.4658624529838562,-1.625078558921814,0.913726806640625,0.3619078993797302,-0.357086181640625
1,2021-06-08 16:06:42.2090,00:35,60,3,2021-06-08 16:06:48.3340,1623161208.333757,1.7765804529190063,0.46361660957336426,-1.5260779857635498,0.9002838134765625,0.3542022109031677,-0.3496552109718323
1,2021-06-08 16:06:42.2090,00:35,60,3,2021-06-08 16:06:48.3480,1623161208.3481932,1.7644749879837036,0.48604124784469604,-1.4178178310394287,0.8609160780906677,0.3279265761375427,-0.3361053466796875
1,2021-06-08 16:06:42.2090,00:35,60,3,2021-06-08 16:06:48.3640,1623161208.3637729,1.747565746307373,0.5176857113838196,-1.2938977479934692,0.8382415175437927,0.31040942668914795,-0.32843017578125
1,2021-06-08 16:06:42.2090,00:35,60,3,2021-06-08 16:06:48.3780,1623161208.3783631,1.6828376054763794,0.5479597449302673,-1.1531821489334106,0.8090057373046875,0.27001953125,-0.3094940185546875
1,2021-06-08 16:06:42.2090,00:35,60,3,2021-06-08 16:06:48.3940,1623161208.393664,1.5766663551330566,0.5840333104133606,-0.9911399483680725,0.799560546875,0.24714654684066772,-0.300018310546875
1,2021-06-08 16:06:42.2090,00:35,60,3,2021-06-08 16:06:48.4080,1623161208.408339,1.420256495475769,0.624497652053833,-0.8036156296730042,0.7847594618797302,0.20072931051254272,-0.2824249267578125
1,2021-06-08 16:06:42.2090,00:35,60,3,2021-06-08 16:06:48.4240,1623161208.423771,1.2171223163604736,0.667377233505249,-0.6077347993850708,0.7744293212890625,0.17169189453125,-0.27392578125
1,2021-06-08 16:06:42.2090,00:35,60,3,2021-06-08 16:06:48.4380,1623161208.438315,0.9521375894546509,0.7455047369003296,-0.42088499665260315,0.7298278212547302,0.10270684957504272,-0.2595214247703552
1,2021-06-08 16:06:42.2090,00:35,60,3,2021-06-08 16:06:48.4540,1623161208.45387,0.6499313712120056,0.8445913791656494,-0.22510911524295807,0.713409423828125,0.0764007568359375,-0.2651367783546448
1,2021-06-08 16:06:42.2090,00:35,60,3,2021-06-08 16:06:48.4690,1623161208.4685302,0.35831549763679504,0.9496203660964966,-0.014758538454771042,0.7098693251609802,0.05149829387664795,-0.2853240370750427
1,2021-06-08 16:06:42.2090,00:35,60,3,2021-06-08 16:06:48.4840,1623161208.483917,0.07973865419626236,1.0364052057266235,0.1771714836359024,0.7223663330078125,0.059478700160980225,-0.296722412109375
1,2021-06-08 16:06:42.2090,00:35,60,3,2021-06-08 16:06:48.4980,1623161208.4984,-0.13377416133880615,1.0922729969024658,0.3366719186306,0.7523956298828125,0.0830078125,-0.3201141357421875
1,2021-06-08 16:06:42.2090,00:35,60,3,2021-06-08 16:06:48.5140,1623161208.513918,-0.2967816889286041,1.1569790840148926,0.4910023808479309,0.7661132216453552,0.09388726949691772,-0.334136962890625
1,2021-06-08 16:06:42.2090,00:35,60,3,2021-06-08 16:06:48.5280,1623161208.5284681,-0.39580559730529785,1.196091890335083,0.6196327805519104,0.7909546494483948,0.11352533102035522,-0.3426055908203125
1,2021-06-08 16:06:42.2090,00:35,60,3,2021-06-08 16:06:48.5440,1623161208.543909,-0.4384257197380066,1.226496934890747,0.7282495498657227,0.79730224609375,0.1181488037109375,-0.340484619140625
1,2021-06-08 16:06:42.2090,00:35,60,3,2021-06-08 16:06:48.5590,1623161208.558512,-0.39580848813056946,1.2978233098983765,0.8346401453018188,0.7866515517234802,0.13116449117660522,-0.3362274467945099
1,2021-06-08 16:06:42.2090,00:35,60,3,2021-06-08 16:06:48.5740,1623161208.5740252,-0.26564767956733704,1.3848090171813965,0.9358853101730347,0.7871093153953552,0.1367034912109375,-0.3276977837085724
1,2021-06-08 16:06:42.2090,00:35,60,3,2021-06-08 16:06:48.5880,1623161208.588479,-0.11654287576675415,1.4647198915481567,1.0181324481964111,0.8103331923484802,0.15628045797348022,-0.3164977729320526
1,2021-06-08 16:06:42.2090,00:35,60,3,2021-06-08 16:06:48.6040,1623161208.6040292,-0.008477467112243176,1.5159492492675781,1.09793221950531,0.8343963623046875,0.177154541015625,-0.3184051811695099
1,2021-06-08 16:06:42.2090,00:35,60,3,2021-06-08 16:06:48.6190,1623161208.618558,0.06368913501501083,1.5535783767700195,1.1755870580673218,0.8857115507125854,0.22178643941879272,-0.3310851752758026
1,2021-06-08 16:06:42.2090,00:35,60,3,2021-06-08 16:06:48.6340,1623161208.6343842,0.04939291626214981,1.5619864463806152,1.260923147201538,0.9127503037452698,0.23451238870620728,-0.3381043076515198
1,2021-06-08 16:06:42.2090,00:35,60,3,2021-06-08 16:06:48.6490,1623161208.648545,-0.08457028865814209,1.5361175537109375,1.3441964387893677,0.9620208740234375,0.23387140035629272,-0.3374938666820526
1,2021-06-08 16:06:42.2090,00:35,60,3,2021-06-08 16:06:48.6640,1623161208.664046,-0.46916472911834717,1.519089937210083,1.4002747535705566,0.9767608046531677,0.22729480266571045,-0.3282012641429901
1,2021-06-08 16:06:42.2090,00:35,60,3,2021-06-08 16:06:48.6790,1623161208.6785889,-1.287539005279541,1.4978575706481934,1.4526340961456299,0.9743499755859375,0.1749114692211151,-0.2826385200023651
1,2021-06-08 16:06:42.2090,00:35,60,3,2021-06-08 16:06:48.6940,1623161208.694108,-2.6950936317443848,1.3478446006774902,1.4208959341049194,0.974014163017273,0.10765066742897034,-0.2207030951976776
1,2021-06-08 16:06:42.2090,00:35,60,3,2021-06-08 16:06:48.7090,1623161208.708568,-3.936105728149414,0.8722491264343262,1.2719780206680298,1.0289307236671448,0.12030032277107239,-0.31529243290424347
1,2021-06-08 16:06:42.2090,00:35,60,3,2021-06-08 16:06:48.7240,1623161208.72417,-5.066969394683838,0.6703469157218933,0.986232340335846,1.0872802138328552,0.2834929823875427,-0.4277953803539276
1,2021-06-08 16:06:42.2090,00:35,60,3,2021-06-08 16:06:48.7390,1623161208.738675,-5.844379425048828,0.2529778778553009,0.8865238428115845,1.0990599989891052,0.7936248183250427,-0.20477294921875
1,2021-06-08 16:06:42.2090,00:35,60,3,2021-06-08 16:06:48.7540,1623161208.75419,-5.058846473693848,-0.011104367673397064,0.9603663682937622,1.1363067030906677,1.0756377875804901,-0.3426514118909836
1,2021-06-08 16:06:42.2090,00:35,60,3,2021-06-08 16:06:48.7690,1623161208.76879,-4.32966947555542,0.1352808028459549,1.019777536392212,1.030776858329773,1.1583556234836578,-0.3620300516486168
1,2021-06-08 16:06:42.2090,00:35,60,3,2021-06-08 16:06:48.7840,1623161208.784195,-4.207517147064209,0.19160373508930206,0.9786695241928101,0.967666506767273,0.9946898818016052,-0.3199616074562073
1,2021-06-08 16:06:42.2090,00:35,60,3,2021-06-08 16:06:48.7990,1623161208.798924,-4.193033695220947,0.1609363704919815,1.0686577558517456,0.9348448514938354,0.7021941542625427,-0.2584381075575948
1,2021-06-08 16:06:42.2090,00:35,60,3,2021-06-08 16:06:48.8140,1623161208.814259,-4.171519756317139,0.1406438797712326,1.1935999393463135,0.9262542128562927,0.6277464926242828,-0.22030637226998806
1,2021-06-08 16:06:42.2090,00:35,60,3,2021-06-08 16:06:48.8290,1623161208.828918,-3.8491408824920654,0.06966105103492737,1.2589138746261597,0.8973234295845032,0.632736086845398,-0.2639008164405823
1,2021-06-08 16:06:42.2090,00:35,60,3,2021-06-08 16:06:48.8450,1623161208.8445249,-2.9943606853485107,0.09264758974313736,1.3855981826782227,0.8771209120750427,0.6655882894992828,-0.28771981596946716
1,2021-06-08 16:06:42.2090,00:35,60,3,2021-06-08 16:06:48.8590,1623161208.858839,-2.0726418495178223,0.1347937136888504,1.5502564907073975,0.9249573349952698,0.7301330268383026,-0.2951812446117401
1,2021-06-08 16:06:42.2090,00:35,60,3,2021-06-08 16:06:48.8740,1623161208.874336,-1.268592357635498,0.03748846799135208,1.684793472290039,0.9953001737594604,0.7333220839500427,-0.2873688042163849
1,2021-06-08 16:06:42.2090,00:35,60,3,2021-06-08 16:06:48.8890,1623161208.888814,-0.705991268157959,-0.20128656923770905,1.6896005868911743,1.1073760390281677,0.7041320502758026,-0.3008269816637039
1,2021-06-08 16:06:42.2090,00:35,60,3,2021-06-08 16:06:48.9040,1623161208.9043322,-0.22342199087142944,-0.3566308617591858,1.5405224561691284,1.1116636395454407,0.6801604926586151,-0.3054809421300888
1,2021-06-08 16:06:42.2090,00:35,60,3,2021-06-08 16:06:48.9190,1623161208.918858,0.22009073197841644,-0.343467652797699,1.3062843084335327,1.0262449383735657,0.6734771132469177,-0.17735294997692108
1,2021-06-08 16:06:42.2090,00:35,60,3,2021-06-08 16:06:48.9340,1623161208.934428,0.6176013350486755,-0.28425732254981995,1.0112297534942627,0.9689330458641052,0.6580505073070526,-0.10368353128433228
1,2021-06-08 16:06:42.2090,00:35,60,3,2021-06-08 16:06:48.9490,1623161208.9489322,1.1242634057998657,-0.0593818835914135,0.6963504552841187,0.8596649765968323,0.5794982761144638,-0.05453498661518097
1,2021-06-08 16:06:42.2090,00:35,60,3,2021-06-08 16:06:48.9640,1623161208.964377,1.43431556224823,0.1784628927707672,0.3913780748844147,0.8328551650047302,0.5649871379137039,-0.06184389442205429
1,2021-06-08 16:06:42.2090,00:35,60,3,2021-06-08 16:06:48.9790,1623161208.979078,1.8683055639266968,0.2375515103340149,0.1634676605463028,0.8869781494140625,0.4953612685203552,-0.1019439846277237
1,2021-06-08 16:06:42.2090,00:35,60,3,2021-06-08 16:06:48.9950,1623161208.994596,2.377617120742798,0.19807574152946472,-0.02677205763757229,0.9146575331687927,0.4771880805492401,-0.1258545145392418
1,2021-06-08 16:06:42.2090,00:35,60,3,2021-06-08 16:06:49.0090,1623161209.008964,3.024765729904175,0.1988440752029419,-0.23956236243247986,0.9499815702438354,0.4599913954734802,-0.19671639800071716
1,2021-06-08 16:06:42.2090,00:35,60,3,2021-06-08 16:06:49.0240,1623161209.024436,3.6172726154327393,0.14672626554965973,-0.43481096625328064,0.9763641357421875,0.4599914252758026,-0.19442756474018097
1,2021-06-08 16:06:42.2090,00:35,60,3,2021-06-08 16:06:49.0420,1623161209.042171,3.985048770904541,0.0494639053940773,-0.6231696605682373,1.011504888534546,0.43884265422821045,-0.15675360709428787
1,2021-06-08 16:06:42.2090,00:35,60,3,2021-06-08 16:06:49.0550,1623161209.054559,4.06948184967041,-0.056592222303152084,-0.7996948957443237,1.0040130019187927,0.4180602431297302,-0.1368713304400444
1,2021-06-08 16:06:42.2090,00:35,60,3,2021-06-08 16:06:49.0690,1623161209.069059,3.9492714405059814,-0.1383182555437088,-0.9563696980476379,0.9815520644187927,0.3921965956687927,-0.1139831468462944
1,2021-06-08 16:06:42.2090,00:35,60,3,2021-06-08 16:06:49.0850,1623161209.084515,3.7226672172546387,-0.24648040533065796,-1.054258942604065,0.9736326932907104,0.3926085829734802,-0.10415653558447957
1,2021-06-08 16:06:42.2090,00:35,60,3,2021-06-08 16:06:49.0990,1623161209.0990791,3.346405267715454,-0.36044371128082275,-1.07457435131073,0.9641571044921875,0.3925170600414276,-0.07673644367605448
1,2021-06-08 16:06:42.2090,00:35,60,3,2021-06-08 16:06:49.1150,1623161209.1145868,2.86456036567688,-0.46231016516685486,-1.0682406425476074,0.9547118544578552,0.3857421278953552,-0.06755069643259048
1,2021-06-08 16:06:42.2090,00:35,60,3,2021-06-08 16:06:49.1290,1623161209.1290889,2.361891508102417,-0.5747067332267761,-1.0430008172988892,0.948531985282898,0.39041128754615784,-0.06631474196910858
1,2021-06-08 16:06:42.2090,00:35,60,3,2021-06-08 16:06:49.1450,1623161209.1446671,1.8955930471420288,-0.6745611429214478,-1.014722228050232,0.9461058974266052,0.4151305854320526,-0.07038884609937668
1,2021-06-08 16:06:42.2090,00:35,60,3,2021-06-08 16:06:49.1590,1623161209.159151,1.4594287872314453,-0.7171024680137634,-0.9798162579536438,0.9289855360984802,0.4693603217601776,-0.0620117262005806
1,2021-06-08 16:06:42.2090,00:35,60,3,2021-06-08 16:06:49.1750,1623161209.174739,1.002727746963501,-0.7407851815223694,-1.0017465353012085,0.92535400390625,0.4874114990234375,-0.0666351467370987
1,2021-06-08 16:06:42.2090,00:35,60,3,2021-06-08 16:06:49.1890,1623161209.189179,0.5890731811523438,-0.811424732208252,-1.0327712297439575,0.9760894775390625,0.5288543403148651,-0.05914303660392761
1,2021-06-08 16:06:42.2090,00:35,60,3,2021-06-08 16:06:49.2050,1623161209.204667,0.3316980004310608,-0.8492613434791565,-1.0815374851226807,0.9973602294921875,0.55230712890625,-0.04306034743785858
1,2021-06-08 16:06:42.2090,00:35,60,3,2021-06-08 16:06:49.2190,1623161209.219214,0.27366453409194946,-0.8423373699188232,-1.229222059249878,1.0140531659126282,0.599105715751648,-0.04498295485973358
1,2021-06-08 16:06:42.2090,00:35,60,3,2021-06-08 16:06:49.2350,1623161209.234802,0.4435104429721832,-0.8030698895454407,-1.3658102750778198,1.0261840224266052,0.6111754477024078,-0.0392913818359375
1,2021-06-08 16:06:42.2090,00:35,60,3,2021-06-08 16:06:49.2490,1623161209.2492871,0.6598126888275146,-0.7097101211547852,-1.466628909111023,1.0256804823875427,0.6236266195774078,0.023223876953125
1,2021-06-08 16:06:42.2090,00:35,60,3,2021-06-08 16:06:49.2650,1623161209.2647061,0.8041360974311829,-0.6138045787811279,-1.5772583484649658,1.0137786865234375,0.5860137343406677,0.04711911082267761
1,2021-06-08 16:06:42.2090,00:35,60,3,2021-06-08 16:06:49.2790,1623161209.279313,0.8494995832443237,-0.5534936189651489,-1.665191888809204,1.0108642578125,0.5007171332836151,0.07287594676017761
1,2021-06-08 16:06:42.2090,00:35,60,3,2021-06-08 16:06:49.2950,1623161209.295073,0.8516917824745178,-0.5013574361801147,-1.7512383460998535,0.9995574355125427,0.4721679091453552,0.0741119384765625
1,2021-06-08 16:06:42.2090,00:35,60,3,2021-06-08 16:06:49.3090,1623161209.309218,0.8029699325561523,-0.43615099787712097,-1.8201732635498047,0.9707489013671875,0.4466705322265625,0.06732173264026642
1,2021-06-08 16:06:42.2090,00:35,60,3,2021-06-08 16:06:49.3250,1623161209.324786,0.6669096946716309,-0.3910444974899292,-1.866663932800293,0.95849609375,0.4372100830078125,0.060333251953125
1,2021-06-08 16:06:42.2090,00:35,60,3,2021-06-08 16:06:49.3390,1623161209.339427,0.45425572991371155,-0.3674187958240509,-1.8794255256652832,0.938140869140625,0.3950499892234802,0.03520199656486511
1,2021-06-08 16:06:42.2090,00:35,60,3,2021-06-08 16:06:49.3550,1623161209.35502,0.21769805252552032,-0.3308354914188385,-1.8700581789016724,0.916961669921875,0.3667449355125427,0.020568788051605225
1,2021-06-08 16:06:42.2090,00:35,60,3,2021-06-08 16:06:49.3690,1623161209.369409,0.0005311279674060643,-0.26799818873405457,-1.8405396938323975,0.8696136474609375,0.3296813368797302,0.0067290812730789185
1,2021-06-08 16:06:42.2090,00:35,60,3,2021-06-08 16:06:49.3850,1623161209.38515,-0.18031761050224304,-0.15674492716789246,-1.7947704792022705,0.8432464599609375,0.3258208632469177,0.004180908203125
1,2021-06-08 16:06:42.2090,00:35,60,3,2021-06-08 16:06:49.3990,1623161209.3994598,-0.31944942474365234,-0.055399127304553986,-1.7316832542419434,0.8159026503562927,0.3433837294578552,0.004684463143348694
1,2021-06-08 16:06:42.2090,00:35,60,3,2021-06-08 16:06:49.4150,1623161209.415187,-0.39755886793136597,0.06983122229576111,-1.6324373483657837,0.8023223280906677,0.34814441204071045,0.0001221001148223877
1,2021-06-08 16:06:42.2090,00:35,60,3,2021-06-08 16:06:49.4300,1623161209.4295259,-0.42658060789108276,0.2157016098499298,-1.5028003454208374,0.76708984375,0.36065673828125,-0.004806578159332275
1,2021-06-08 16:06:42.2090,00:35,60,3,2021-06-08 16:06:49.4450,1623161209.4449492,-0.4037416875362396,0.3359300196170807,-1.3711371421813965,0.7517853379249573,0.3722533583641052,-0.006179824471473694
1,2021-06-08 16:06:42.2090,00:35,60,3,2021-06-08 16:06:49.4600,1623161209.459508,-0.3607707619667053,0.45184651017189026,-1.2339491844177246,0.7192076444625854,0.37754809856414795,-0.024200439453125
1,2021-06-08 16:06:42.2090,00:35,60,3,2021-06-08 16:06:49.4750,1623161209.47504,-0.2719367444515228,0.5640084743499756,-1.0940346717834473,0.705490231513977,0.3791198134422302,-0.039810165762901306
1,2021-06-08 16:06:42.2090,00:35,60,3,2021-06-08 16:06:49.4900,1623161209.489532,-0.13845042884349823,0.6779249310493469,-0.9464489221572876,0.6917572021484375,0.3850249648094177,-0.05752566456794739
1,2021-06-08 16:06:42.2090,00:35,60,3,2021-06-08 16:06:49.5050,1623161209.504997,0.032193344086408615,0.7871507406234741,-0.7737570405006409,0.69769287109375,0.38803088665008545,-0.0642852932214737
1,2021-06-08 16:06:42.2090,00:35,60,3,2021-06-08 16:06:49.5200,1623161209.5195742,0.22888857126235962,0.8820785880088806,-0.5974488258361816,0.718658447265625,0.3925017714500427,-0.07110595703125
1,2021-06-08 16:06:42.2090,00:35,60,3,2021-06-08 16:06:49.5350,1623161209.53517,0.45866066217422485,0.9890242218971252,-0.41135141253471375,0.7255097031593323,0.3966826796531677,-0.06916816532611847
1,2021-06-08 16:06:42.2090,00:35,60,3,2021-06-08 16:06:49.5500,1623161209.550292,0.6814145445823669,1.129611849784851,-0.21505168080329895,0.7398833632469177,0.3986358046531677,-0.05741885304450989
1,2021-06-08 16:06:42.2090,00:35,60,3,2021-06-08 16:06:49.5650,1623161209.565134,0.8790953755378723,1.2944355010986328,-0.00167362904176116,0.7543333768844604,0.39776599407196045,-0.05380246043205261
1,2021-06-08 16:06:42.2090,00:35,60,3,2021-06-08 16:06:49.5800,1623161209.57966,1.0876256227493286,1.480851650238037,0.21431751549243927,0.8054046034812927,0.41461169719696045,-0.045898422598838806
1,2021-06-08 16:06:42.2090,00:35,60,3,2021-06-08 16:06:49.5950,1623161209.595179,1.3042088747024536,1.653682827949524,0.4324226975440979,0.8464507460594177,0.4368284344673157,-0.05659489333629608
1,2021-06-08 16:06:42.2090,00:35,60,3,2021-06-08 16:06:49.6100,1623161209.609663,1.5690343379974365,1.9026950597763062,0.6735996007919312,0.9429625272750854,0.4704741835594177,-0.0714568942785263
1,2021-06-08 16:06:42.2090,00:35,60,3,2021-06-08 16:06:49.6250,1623161209.625167,1.8443764448165894,2.137458086013794,0.892307698726654,1.017181396484375,0.5003356337547302,-0.0888977199792862
1,2021-06-08 16:06:42.2090,00:35,60,3,2021-06-08 16:06:49.6400,1623161209.639721,2.1409027576446533,2.1720786094665527,1.0777257680892944,1.2262116074562073,0.5720367431640625,-0.14891056716442108
1,2021-06-08 16:06:42.2090,00:35,60,3,2021-06-08 16:06:49.6550,1623161209.655199,2.4634087085723877,2.1481430530548096,1.1800607442855835,1.2964782118797302,0.6041259169578552,-0.1968231052160263
1,2021-06-08 16:06:42.2090,00:35,60,3,2021-06-08 16:06:49.6700,1623161209.6699991,2.7421958446502686,2.133183240890503,1.1539191007614136,1.313201904296875,0.6394805312156677,-0.3021240383386612
1,2021-06-08 16:06:42.2090,00:35,60,3,2021-06-08 16:06:49.6850,1623161209.685349,2.8553454875946045,1.92849600315094,0.9679806232452393,1.2900084853172302,0.6375579237937927,-0.3555755466222763
1,2021-06-08 16:06:42.2090,00:35,60,3,2021-06-08 16:06:49.7000,1623161209.699757,2.6265175342559814,1.69378662109375,0.6730421781539917,1.104217529296875,0.5548552870750427,-0.4271240085363388
1,2021-06-08 16:06:42.2090,00:35,60,3,2021-06-08 16:06:49.7160,1623161209.715658,2.2751502990722656,1.4877707958221436,0.296987384557724,0.943695068359375,0.4911193251609802,-0.435272216796875
1,2021-06-08 16:06:42.2090,00:35,60,3,2021-06-08 16:06:49.7300,1623161209.729693,2.005302667617798,1.4843521118164062,-0.04433533921837807,0.683822751045227,0.3834686875343323,-0.37677001953125
1,2021-06-08 16:06:42.2090,00:35,60,3,2021-06-08 16:06:49.7450,1623161209.7453,1.2299872636795044,1.322211742401123,-0.2511971890926361,0.6589967012405396,0.3283081650733948,-0.3278808742761612
1,2021-06-08 16:06:42.2090,00:35,60,3,2021-06-08 16:06:49.7600,1623161209.7598538,0.01079135574400425,0.8732041120529175,-0.4416441023349762,0.8126678466796875,0.1931610107421875,-0.3974151611328125
1,2021-06-08 16:06:42.2090,00:35,60,3,2021-06-08 16:06:49.7750,1623161209.7753491,-1.8990517854690552,-0.022676333785057068,-0.37073129415512085,0.9500121474266052,0.2503662109375,-0.4277801513671875
1,2021-06-08 16:06:42.2090,00:35,60,3,2021-06-08 16:06:49.7900,1623161209.789884,-3.3788113594055176,-0.5226683020591736,-0.529194712638855,1.0724486112594604,0.006637513637542725,-0.5824279934167862
1,2021-06-08 16:06:42.2090,00:35,60,3,2021-06-08 16:06:49.8060,1623161209.805655,-4.053749084472656,-2.0481016635894775,-1.5810333490371704,1.1418761610984802,0.3785094618797302,-0.9447632282972336
1,2021-06-08 16:06:42.2090,00:35,60,3,2021-06-08 16:06:49.8200,1623161209.820041,-4.358081340789795,-1.5173842906951904,-1.6054548025131226,1.0120849609375,2.2961426377296448,-0.8887634053826332
1,2021-06-08 16:06:42.2090,00:35,60,3,2021-06-08 16:06:49.8360,1623161209.835566,-3.310080051422119,-1.421077013015747,-1.7786078453063965,0.9710082411766052,1.9411619305610657,-0.7137756496667862
1,2021-06-08 16:06:42.2090,00:35,60,3,2021-06-08 16:06:49.8500,1623161209.84999,-2.989713191986084,-1.8545717000961304,-1.7330998182296753,1.0321654677391052,0.7656859159469604,-0.3875121772289276
1,2021-06-08 16:06:42.2090,00:35,60,3,2021-06-08 16:06:49.8650,1623161209.865444,-2.668961524963379,-1.9477612972259521,-1.8165675401687622,0.9374083876609802,0.5435943007469177,-0.2615204192698002
1,2021-06-08 16:06:42.2090,00:35,60,3,2021-06-08 16:06:49.8800,1623161209.880025,-2.33735990524292,-1.911755084991455,-1.7709890604019165,0.7518004179000854,0.516189455986023,-0.30532843992114067
1,2021-06-08 16:06:42.2090,00:35,60,3,2021-06-08 16:06:49.8960,1623161209.8955321,-2.2551040649414062,-1.995503544807434,-1.658231496810913,0.7557372450828552,0.48410022258758545,-0.32226561568677425
1,2021-06-08 16:06:42.2090,00:35,60,3,2021-06-08 16:06:49.9100,1623161209.910032,-2.27062726020813,-2.038766384124756,-1.5009419918060303,0.7886046171188354,0.3086394667625427,-0.19050595350563526
1,2021-06-08 16:06:42.2090,00:35,60,3,2021-06-08 16:06:49.9260,1623161209.925533,-2.21112322807312,-2.0722265243530273,-1.472414493560791,0.7729491591453552,0.3068235516548157,-0.13504029531031847
1,2021-06-08 16:06:42.2090,00:35,60,3,2021-06-08 16:06:49.9400,1623161209.940078,-1.6149219274520874,-1.951154112815857,-1.3058409690856934,0.6838530898094177,0.4960936903953552,-0.007797223050147295
1,2021-06-08 16:06:42.2090,00:35,60,3,2021-06-08 16:06:49.9560,1623161209.955779,-0.7292061448097229,-1.7769306898117065,-1.1097947359085083,0.6614379286766052,0.5236509442329407,-0.05055233906023204
1,2021-06-08 16:06:42.2090,00:35,60,3,2021-06-08 16:06:49.9700,1623161209.97011,-0.13675299286842346,-1.5877983570098877,-0.9050593972206116,0.634811282157898,0.4663847088813782,-0.05256656929850578
1,2021-06-08 16:06:42.2090,00:35,60,3,2021-06-08 16:06:49.9860,1623161209.985608,0.2039029449224472,-1.4490244388580322,-0.6446653604507446,0.626754641532898,0.42848193645477295,-0.0348358079791069
1,2021-06-08 16:06:42.2090,00:35,60,3,2021-06-08 16:06:50.0000,1623161210.000175,0.34082937240600586,-1.3241355419158936,-0.38150113821029663,0.6057891845703125,0.3509826064109802,-0.0810546986758709
1,2021-06-08 16:06:42.2090,00:35,60,3,2021-06-08 16:06:50.0160,1623161210.015698,0.3039594888687134,-1.1908650398254395,-0.10775531828403473,0.5941924452781677,0.32946765422821045,-0.10314943268895149
1,2021-06-08 16:06:42.2090,00:35,60,3,2021-06-08 16:06:50.0300,1623161210.030299,0.15833868086338043,-1.0744609832763672,0.14663781225681305,0.5853270888328552,0.31559741497039795,-0.1360778994858265
1,2021-06-08 16:06:42.2090,00:35,60,3,2021-06-08 16:06:50.0460,1623161210.045999,-0.027505991980433464,-0.9799572825431824,0.3715985119342804,0.5947723388671875,0.3133544325828552,-0.1527099609375
1,2021-06-08 16:06:42.2090,00:35,60,3,2021-06-08 16:06:50.0600,1623161210.060264,-0.16024991869926453,-0.9179874062538147,0.5728346705436707,0.6064910888671875,0.31768798828125,-0.16207889467477798
1,2021-06-08 16:06:42.2090,00:35,60,3,2021-06-08 16:06:50.0760,1623161210.075852,-0.21856169402599335,-0.8508182168006897,0.7672358155250549,0.6028289198875427,0.3209227919578552,-0.1595306470990181
1,2021-06-08 16:06:42.2090,00:35,60,3,2021-06-08 16:06:50.0900,1623161210.0902572,-0.23869463801383972,-0.7543302774429321,0.9510964751243591,0.5913239121437073,0.3428803086280823,-0.1362762525677681
1,2021-06-08 16:06:42.2090,00:35,60,3,2021-06-08 16:06:50.1060,1623161210.1058621,-0.2197362631559372,-0.629486620426178,1.1250711679458618,0.5947113037109375,0.34687793254852295,-0.12081912159919739
1,2021-06-08 16:06:42.2090,00:35,60,3,2021-06-08 16:06:50.1200,1623161210.120317,-0.1963007152080536,-0.5202714800834656,1.2899158000946045,0.6233672499656677,0.3496397137641907,-0.06845097988843918
1,2021-06-08 16:06:42.2090,00:35,60,3,2021-06-08 16:06:50.1360,1623161210.135954,-0.15291473269462585,-0.3950254023075104,1.4563138484954834,0.630126953125,0.35452258586883545,-0.044982872903347015
1,2021-06-08 16:06:42.2090,00:35,60,3,2021-06-08 16:06:50.1500,1623161210.1503959,-0.05791958421468735,-0.24465453624725342,1.6250545978546143,0.65252685546875,0.3717651963233948,-0.017303459346294403
1,2021-06-08 16:06:42.2090,00:35,60,3,2021-06-08 16:06:50.1660,1623161210.165926,0.06525078415870667,-0.087552011013031,1.7860339879989624,0.6729736328125,0.3896941542625427,-0.010559163987636566
1,2021-06-08 16:06:42.2090,00:35,60,3,2021-06-08 16:06:50.1800,1623161210.180362,0.19256693124771118,0.047861214727163315,1.9406273365020752,0.740615725517273,0.42170703411102295,-0.0026245713233947754
1,2021-06-08 16:06:42.2090,00:35,60,3,2021-06-08 16:06:50.1960,1623161210.196008,0.29735374450683594,0.1733565479516983,2.0719144344329834,0.779189944267273,0.43630969524383545,-0.0029449462890625
1,2021-06-08 16:06:42.2090,00:35,60,3,2021-06-08 16:06:50.2100,1623161210.210427,0.37597137689590454,0.2891324460506439,2.1724796295166016,0.852874755859375,0.4411925673484802,0.0015258118510246277
1,2021-06-08 16:06:42.2090,00:35,60,3,2021-06-08 16:06:50.2260,1623161210.226182,0.4332878291606903,0.3859633803367615,2.241739273071289,0.889434814453125,0.4499968886375427,-0.0035248249769210815
1,2021-06-08 16:06:42.2090,00:35,60,3,2021-06-08 16:06:50.2400,1623161210.2404451,0.4901524484157562,0.4766583740711212,2.2863266468048096,0.9648590087890625,0.48406982421875,-0.007675208151340485
1,2021-06-08 16:06:42.2090,00:35,60,3,2021-06-08 16:06:50.2560,1623161210.2559872,0.599828839302063,0.582059383392334,2.286867380142212,1.0010833144187927,0.49958789348602295,-0.014877326786518097
1,2021-06-08 16:06:42.2090,00:35,60,3,2021-06-08 16:06:50.2700,1623161210.270482,0.6990564465522766,0.6819316744804382,2.240705728530884,1.0774689316749573,0.5415496826171875,-0.0387420579791069
1,2021-06-08 16:06:42.2090,00:35,60,3,2021-06-08 16:06:50.2860,1623161210.285973,0.8222015500068665,0.7577111124992371,2.1429784297943115,1.1233214735984802,0.5690307021141052,-0.052062973380088806
1,2021-06-08 16:06:42.2090,00:35,60,3,2021-06-08 16:06:50.3010,1623161210.300551,0.9272227883338928,0.8054381608963013,1.9567817449569702,1.2012022137641907,0.634170413017273,-0.07711795717477798
1,2021-06-08 16:06:42.2090,00:35,60,3,2021-06-08 16:06:50.3160,1623161210.316081,1.0035624504089355,0.8839066028594971,1.6834272146224976,1.2169646620750427,0.663589358329773,-0.09442140907049179
1,2021-06-08 16:06:42.2090,00:35,60,3,2021-06-08 16:06:50.3310,1623161210.330518,0.9755909442901611,1.0070098638534546,1.3347830772399902,1.2261045575141907,0.6918333768844604,-0.11053469032049179
1,2021-06-08 16:06:42.2090,00:35,60,3,2021-06-08 16:06:50.3460,1623161210.346025,1.0824891328811646,1.0352637767791748,1.0477298498153687,1.2519988417625427,0.6686248183250427,-0.1063995361328125
1,2021-06-08 16:06:42.2090,00:35,60,3,2021-06-08 16:06:50.3600,1623161210.360395,0.04254414513707161,0.7927811741828918,0.5758382081985474,1.4479674696922302,0.5660399794578552,-0.2030945122241974
1,2021-06-08 16:06:42.2090,00:35,60,3,2021-06-08 16:06:50.3760,1623161210.375937,-2.656447649002075,-0.04797317087650299,0.5336260199546814,1.5730894207954407,0.6347960829734802,-0.5154419206082821
1,2021-06-08 16:06:42.2090,00:35,60,3,2021-06-08 16:06:50.3910,1623161210.3905,-5.247409820556641,-0.6937039494514465,0.3285770118236542,1.6491851806640625,0.07127377390861511,-0.9236450307071209
1,2021-06-08 16:06:42.2090,00:35,60,3,2021-06-08 16:06:50.4060,1623161210.4059958,-6.57606840133667,-1.2485448122024536,0.030766068026423454,1.552017092704773,-0.05029308795928955,-0.7174377599731088
1,2021-06-08 16:06:42.2090,00:35,60,3,2021-06-08 16:06:50.4210,1623161210.420874,-5.343427658081055,-0.903100848197937,0.017006315290927887,1.167831301689148,0.5770567655563354,-0.37089545652270317
1,2021-06-08 16:06:42.2090,00:35,60,3,2021-06-08 16:06:50.4360,1623161210.436194,-3.0474703311920166,-0.5365921258926392,-0.13618110120296478,1.0330352783203125,0.8309478163719177,-0.2694244161248207
1,2021-06-08 16:06:42.2090,00:35,60,3,2021-06-08 16:06:50.4510,1623161210.4506788,-0.6659070253372192,-0.2610523998737335,-0.2605312764644623,0.8521727323532104,0.7900847494602203,-0.2922058552503586
1,2021-06-08 16:06:42.2090,00:35,60,3,2021-06-08 16:06:50.4660,1623161210.466224,0.969291090965271,-0.13767243921756744,-0.3040885925292969,0.78851318359375,0.72607421875,-0.22648628801107407
1,2021-06-08 16:06:42.2090,00:35,60,3,2021-06-08 16:06:50.4810,1623161210.480736,2.2058568000793457,-0.03853945434093475,-0.35402047634124756,0.7425229549407959,0.5988768339157104,-0.16012579202651978
1,2021-06-08 16:06:42.2090,00:35,60,3,2021-06-08 16:06:50.4960,1623161210.496253,3.0299086570739746,0.0457884781062603,-0.3824766278266907,0.7399445176124573,0.5720978081226349,-0.09449777379631996
1,2021-06-08 16:06:42.2090,00:35,60,3,2021-06-08 16:06:50.5110,1623161210.5106912,3.6414542198181152,0.14431583881378174,-0.32604265213012695,0.75396728515625,0.5110625624656677,-0.003051837906241417
1,2021-06-08 16:06:42.2090,00:35,60,3,2021-06-08 16:06:50.5260,1623161210.526232,3.944622039794922,0.22017012536525726,-0.22245261073112488,0.7620086073875427,0.47509756684303284,0.033523548394441605
1,2021-06-08 16:06:42.2090,00:35,60,3,2021-06-08 16:06:50.5410,1623161210.5408869,3.943500518798828,0.23765245079994202,-0.10188918560743332,0.7685547471046448,0.4318085014820099,0.0774841234087944
1,2021-06-08 16:06:42.2090,00:35,60,3,2021-06-08 16:06:50.5570,1623161210.556587,3.665855646133423,0.24504858255386353,0.05636170879006386,0.765609622001648,0.42381274700164795,0.08589166402816772
1,2021-06-08 16:06:42.2090,00:35,60,3,2021-06-08 16:06:50.5710,1623161210.5709,3.1494851112365723,0.2452232837677002,0.2639434039592743,0.7530059218406677,0.3887328803539276,0.06895440071821213
1,2021-06-08 16:06:42.2090,00:35,60,3,2021-06-08 16:06:50.5860,1623161210.586302,2.497293472290039,0.19903181493282318,0.45111942291259766,0.7589873671531677,0.3626098334789276,0.045074447989463806
1,2021-06-08 16:06:42.2090,00:35,60,3,2021-06-08 16:06:50.6010,1623161210.6010141,1.843767762184143,0.13509704172611237,0.6128968596458435,0.7703704237937927,0.3497771620750427,-0.02398681640625
1,2021-06-08 16:06:42.2090,00:35,60,3,2021-06-08 16:06:50.6160,1623161210.616374,1.3631541728973389,0.07209677249193192,0.7370241284370422,0.7775573134422302,0.3488005995750427,-0.0694122165441513
1,2021-06-08 16:06:42.2090,00:35,60,3,2021-06-08 16:06:50.6310,1623161210.6309361,1.038683295249939,0.007889296859502792,0.8331019282341003,0.789596438407898,0.3538359999656677,-0.1265564262866974
1,2021-06-08 16:06:42.2090,00:35,60,3,2021-06-08 16:06:50.6460,1623161210.646415,0.8188856244087219,-0.06608320027589798,0.9007976651191711,0.79217529296875,0.3562011420726776,-0.1403045654296875
1,2021-06-08 16:06:42.2090,00:35,60,3,2021-06-08 16:06:50.6610,1623161210.661011,0.6603530049324036,-0.13116127252578735,0.9419011473655701,0.8102264404296875,0.3723906874656677,-0.13806156814098358
1,2021-06-08 16:06:42.2090,00:35,60,3,2021-06-08 16:06:50.6760,1623161210.6764588,0.5183350443840027,-0.1967594474554062,0.9472274780273438,0.8231048583984375,0.3809967041015625,-0.12312322854995728
1,2021-06-08 16:06:42.2090,00:35,60,3,2021-06-08 16:06:50.6910,1623161210.6910028,0.36210548877716064,-0.24601994454860687,0.9217737317085266,0.843398928642273,0.3985595405101776,-0.0842132568359375
1,2021-06-08 16:06:42.2090,00:35,60,3,2021-06-08 16:06:50.7060,1623161210.706452,0.19230109453201294,-0.2727929651737213,0.8560048341751099,0.8528594970703125,0.4069823920726776,-0.0717010647058487
